"Time (s)","Linear Acceleration x (m/s^2)","Linear Acceleration y (m/s^2)","Linear Acceleration z (m/s^2)","Absolute acceleration (m/s^2)"
2.746708333E-2,-1.931823573E0,-5.192754346E-1,-2.749378341E0,3.400098610E0
3.739608332E-2,-1.498932563E0,-1.715228087E-1,-1.340496408E0,2.018204529E0
4.732508335E-2,-7.229263544E-1,-2.082918549E-1,-1.535198164E-1,7.678387492E-1
5.725408334E-2,-8.441786036E-2,-5.076383060E-1,6.126279867E-1,8.000850423E-1
6.718308333E-2,1.192479698E-1,-7.371953148E-1,8.606569344E-1,1.139476796E0
7.711208332E-2,-2.592070699E-2,-7.583780229E-1,8.612147588E-1,1.147824015E0
8.704108334E-2,-2.656644425E-1,-6.149809062E-1,9.725358045E-1,1.180933953E0
9.696908333E-2,-4.481621826E-1,-4.404912204E-1,1.037120056E0,1.212641689E0
1.068980833E-1,-4.923513454E-1,-2.367829978E-1,1.165389256E0,1.287092908E0
1.168270833E-1,-3.269279136E-1,-1.444344127E-1,1.146260090E0,1.200689533E0
1.267560833E-1,-1.394096079E-1,-1.438929605E-1,8.839025402E-1,9.063244030E-1
1.366850833E-1,-5.238520503E-3,-5.373766601E-2,4.680988491E-1,4.712024102E-1
1.466140834E-1,-3.626852453E-2,6.339843571E-2,2.022803324E-1,2.150630150E-1
1.565430833E-1,-1.196882652E-1,1.327440745E-1,9.050086498E-2,2.003414003E-1
1.664710833E-1,-2.762832785E-1,1.358021683E-1,-8.091201603E-2,3.183102782E-1
1.764000834E-1,-4.923028135E-1,1.460956067E-1,-1.386006457E-1,5.318986045E-1
1.863290833E-1,-4.996681125E-1,1.637577063E-1,-1.517925489E-1,5.472894910E-1
1.962580833E-1,-3.923718515E-1,1.577344894E-1,-7.291185558E-2,4.291293251E-1
2.061870833E-1,-3.102902462E-1,5.519946992E-2,-1.352227092E-2,3.154518508E-1
2.161160833E-1,-2.602898280E-1,-8.924312890E-2,5.591750801E-2,2.807879954E-1
2.260450833E-1,-1.912611084E-1,-1.739540809E-1,2.368882477E-2,2.596189405E-1
2.359730833E-1,-1.783514795E-1,-1.352735800E-1,-4.692507505E-2,2.287141323E-1
2.459020833E-1,-2.676855326E-1,-2.268251896E-2,-1.652323741E-1,3.153914686E-1
2.558310833E-1,-3.152155021E-1,1.200433373E-1,-3.670472682E-1,4.984926405E-1
2.657600833E-1,-2.424581592E-1,2.497258097E-1,-6.335107327E-1,7.228310919E-1
2.756890833E-1,-1.423770699E-1,2.741928989E-1,-1.050742899E0,1.095223089E0
2.856180833E-1,-5.637344465E-2,3.523315805E-1,-1.345818543E0,1.392315718E0
2.955470833E-1,3.670545772E-2,5.493476647E-1,-1.344220499E0,1.452604178E0
3.054750833E-1,4.630146950E-2,8.170337820E-1,-1.064406087E0,1.342627404E0
3.154040833E-1,-1.836187975E-1,9.926133889E-1,-6.434381354E-1,1.197083889E0
3.253330833E-1,-4.083579198E-1,1.149532776E0,-1.124413723E-1,1.225081572E0
3.352620833E-1,-4.889361329E-1,1.377560738E0,3.513486636E-1,1.503388843E0
3.451910833E-1,-3.387582196E-1,1.654864356E0,5.668974978E-1,1.781770451E0
3.551200833E-1,5.873550050E-2,1.544330345E0,1.488011134E-1,1.552593909E0
3.650490833E-1,4.795720363E-1,7.921608961E-1,-8.441502446E-1,1.253035458E0
3.749770833E-1,5.185859017E-1,6.009475887E-2,-1.669872404E0,1.749576110E0
3.849060833E-1,2.440787881E-1,-2.055138427E-1,-2.017930255E0,2.043000956E0
3.948350833E-1,-4.061351739E-2,8.584823549E-2,-2.046880989E0,2.049083005E0
4.047640833E-1,-2.143658694E-1,5.988186175E-1,-1.917420126E0,2.020157519E0
4.146930833E-1,-3.820012298E-1,1.015993481E0,-1.804714460E0,2.105982425E0
4.246220833E-1,-5.168021355E-1,1.386479496E0,-1.834312481E0,2.356716385E0
4.345510833E-1,-5.549637692E-1,1.652665803E0,-1.891477200E0,2.572348157E0
4.444790833E-1,-5.555631088E-1,1.439043626E0,-1.731554098E0,2.319003346E0
4.544080833E-1,-8.611820874E-1,1.499074650E0,-1.431068024E0,2.244284983E0
4.643370833E-1,-9.245354996E-1,1.552830443E0,-1.355080533E0,2.258825253E0
4.742660833E-1,-2.604637096E-1,1.180440866E0,-1.859399375E0,2.217802520E0
4.841950834E-1,1.276702262E-1,7.187189904E-1,-2.659617734E0,2.757974468E0
4.941240833E-1,2.686767087E-1,1.918354511E-2,-3.589567682E0,3.599659890E0
5.040530833E-1,3.348408043E-1,-8.717575809E-1,-4.751488954E0,4.842388556E0
5.139810833E-1,2.594351113E-1,-1.727604596E0,-6.090875561E0,6.336457158E0
5.239100833E-1,1.712254778E-2,-2.459648513E0,-6.996112252E0,7.415911989E0
5.338390833E-1,1.482069632E-1,-2.896348984E0,-7.504936373E0,8.045798451E0
5.437680833E-1,3.003439862E-1,-3.284963122E0,-7.761946644E0,8.433801333E0
5.536970833E-1,3.347829169E-1,-3.414179864E0,-7.486246918E0,8.234840415E0
5.636260833E-1,4.657643482E-1,-2.834648580E0,-6.538436649E0,7.141661068E0
5.735550833E-1,6.859906626E-1,-1.353705268E0,-4.946507045E0,5.174073162E0
5.834830833E-1,6.333282264E-1,2.933928162E-1,-2.422422507E0,2.520974968E0
5.934120833E-1,4.493388616E-1,1.402743234E0,-1.212923611E0,1.908082199E0
6.033410833E-1,2.036277063E0,9.602452496E-1,-4.334540963E-3,2.251336049E0
6.132700833E-1,3.216781372E0,-5.522145545E-1,-6.416822165E-1,3.326316187E0
6.231990833E-1,1.694261141E0,-1.885844869E0,-3.653346772E0,4.446782468E0
6.331280833E-1,-6.946625950E-1,-1.760234983E0,-3.760592893E0,4.209874371E0
6.430570833E-1,-1.265462305E0,-1.682304754E0,-3.297363020E0,3.912051510E0
6.529860833E-1,-7.509802718E-1,-1.563017170E0,-5.356417912E0,5.630116064E0
6.629140833E-1,-7.529178198E-1,-1.956188920E-1,-7.130281293E0,7.172591115E0
6.728430833E-1,-1.229302539E0,4.250338134E-1,-6.856498284E0,6.978782644E0
6.827720833E-1,-2.983976527E0,1.911747158E-3,-6.490184841E0,7.143291877E0
6.927010833E-1,-3.643966376E0,-6.755703396E-1,-5.341147324E0,6.500980001E0
7.026300833E-1,-1.649369874E0,-1.597054397E0,-3.971235913E0,4.587125287E0
7.125590833E-1,6.347228605E-1,-1.940446754E0,-3.072910631E0,3.689307043E0
7.224880833E-1,2.043446335E0,-1.470165724E0,-1.387681099E0,2.874494566E0
7.324160833E-1,2.228763017E0,-6.611818036E-1,7.111453843E-1,2.431105453E0
7.423450833E-1,2.449529176E0,-3.615253039E-1,1.126759041E0,2.720382265E0
7.522740833E-1,2.930172203E0,-5.916081235E-2,1.767068331E0,3.422271121E0
7.622030833E-1,3.047208610E0,-6.620802283E-3,3.108768096E0,4.353155547E0
7.721320833E-1,2.753299484E0,-5.249577588E-1,4.391558917E0,5.209801188E0
7.820610833E-1,2.026229208E0,-1.094659289E0,5.292707820E0,5.772056811E0
7.919900833E-1,1.436753564E0,-1.258936228E0,5.733129458E0,6.043008739E0
8.019180833E-1,1.018382361E0,-9.367360074E-1,5.695958709E0,5.861614333E0
8.118470833E-1,8.929408738E-1,-2.287613489E-1,5.513515640E0,5.590038450E0
8.217760834E-1,9.348683336E-1,4.417113150E-1,5.106633630E0,5.210258604E0
8.317050833E-1,8.174650142E-1,8.128274412E-1,4.434853456E0,4.582233372E0
8.416340833E-1,6.828510001E-1,1.025537745E0,3.613613187E0,3.817880750E0
8.515630833E-1,8.139806584E-1,1.323334830E0,3.217431582E0,3.572904361E0
8.614920833E-1,5.819838989E-1,1.756214437E0,3.699922183E0,4.136715916E0
8.714200833E-1,-5.879696935E-2,1.804976123E0,4.132197481E0,4.509595537E0
8.813490833E-1,-4.045191497E-1,1.365428935E0,4.023853253E0,4.268422064E0
8.912778750E-1,-6.504448539E-1,1.017055043E0,3.757147129E0,3.946344386E0
9.012068750E-1,-8.842554197E-1,9.075010255E-1,3.250064893E0,3.488321597E0
9.111358750E-1,-1.009456001E0,9.050894876E-1,2.523283469E0,2.864462928E0
9.210648750E-1,-9.230897024E-1,9.458722088E-1,1.747864906E0,2.191301112E0
9.309938750E-1,-3.628127146E-1,1.001216763E0,1.494122643E0,1.834794415E0
9.409218750E-1,2.255803174E-1,1.135067203E0,2.447299486E0,2.707127410E0
9.508508750E-1,5.420903930E-1,1.268740839E0,3.759695930E0,4.004856901E0
9.607798750E-1,5.976763639E-1,1.259514810E0,4.371921043E0,4.588822093E0
9.707088750E-1,3.214600360E-1,1.216122622E0,4.512315030E0,4.684365242E0
9.806378750E-1,-2.686766356E-2,1.129685426E0,4.840836164E0,4.970976343E0
9.905668750E-1,-1.801471594E-1,1.032805834E0,5.093322444E0,5.200103307E0
1.000495875E0,-1.988819307E-1,1.203680917E0,5.131226435E0,5.274266442E0
1.010423875E0,-8.242966086E-2,1.622125942E0,5.045851824E0,5.300821431E0
1.020352875E0,4.565798342E-3,2.027384764E0,4.886196524E0,5.290106454E0
1.030281875E0,1.361015457E-1,2.326108633E0,4.595426769E0,5.152402565E0
1.040210875E0,4.692934352E-1,2.473627744E0,4.290328411E0,4.974533991E0
1.050139875E0,9.160022923E-1,2.436428051E0,3.984525465E0,4.759378639E0
1.060068875E0,1.375563914E0,2.264957721E0,3.696868182E0,4.548521069E0
1.069997875E0,1.810901983E0,1.966812142E0,3.435323980E0,4.353064075E0
1.079926875E0,2.010678538E0,1.640508272E0,3.168096870E0,4.095233003E0
1.089854875E0,1.930129927E0,1.380365209E0,2.902108199E0,3.748738674E0
1.099783875E0,1.648162277E0,1.258301366E0,2.723705556E0,3.423205103E0
1.109712875E0,1.245015762E0,1.311187239E0,2.525539325E0,3.106062637E0
1.119641875E0,8.501904184E-1,1.438060125E0,2.242092623E0,2.796036480E0
1.129570875E0,4.971633115E-1,1.564360421E0,1.799581774E0,2.435752337E0
1.139499875E0,2.561343580E-1,1.660217920E0,1.242013509E0,2.089144779E0
1.149428875E0,5.083803177E-2,1.779739686E0,6.846422946E-1,1.907562038E0
1.159356875E0,-4.554279327E-2,1.920806834E0,1.602014297E-1,1.928013884E0
1.169285875E0,1.769042936E-1,1.804927737E0,2.956820011E-2,1.813817395E0
1.179214875E0,6.363934100E-1,1.113970303E0,2.535294235E-1,1.307747520E0
1.189143875E0,9.679217666E-1,3.026413572E-1,1.381036323E-1,1.023492526E0
1.199072875E0,9.490773600E-1,-2.544582537E-1,1.007943034E-1,9.877531725E-1
1.209001875E0,7.084591734E-1,-9.048007813E-1,3.559457445E-1,1.203027941E0
1.218930875E0,3.525327247E-1,-1.166292212E0,3.698960316E-1,1.273318468E0
1.228858875E0,4.296487284E-1,-9.628928688E-1,8.205923975E-2,1.057588968E0
1.238787875E0,5.589780289E-1,-6.136386779E-1,-2.695367610E-1,8.727307313E-1
1.248716875E0,5.912458885E-1,-1.708407310E-1,-6.057469833E-1,8.635320861E-1
1.258645875E0,6.456302565E-1,1.518423964E-1,-9.910399032E-1,1.192499321E0
1.268574875E0,3.797135067E-1,3.006834170E-1,-1.124448806E0,1.224327563E0
1.278503875E0,1.084231657E-1,2.737531883E-1,-7.185795343E-1,7.765648318E-1
1.288432875E0,-3.956518471E-2,-6.004944295E-2,5.413942820E-1,5.461493459E-1
1.298361875E0,-3.904209280E-1,-4.557694101E-1,1.616110765E0,1.723939750E0
1.308289875E0,-4.633380461E-1,-6.182948157E-1,1.832672921E0,1.988884275E0
1.318218875E0,-4.594899935E-1,-3.643544792E-1,1.660320978E0,1.760838150E0
1.328147875E0,-5.282392162E-1,1.268929119E-1,1.053472379E0,1.185302718E0
1.338076875E0,-4.410338420E-1,5.075529367E-1,5.643147826E-2,6.747631770E-1
1.348005875E0,-3.065660083E-1,7.975137296E-1,-9.452866101E-1,1.274196861E0
1.357934875E0,-2.275981915E-1,1.156568146E0,-1.700778447E0,2.069323112E0
1.367863875E0,-5.182387233E-2,1.484483947E0,-2.317636310E0,2.752783385E0
1.377791875E0,1.256566644E-2,1.686759748E0,-2.584642396E0,3.086372087E0
1.387720875E0,-1.341971076E-1,1.738981816E0,-2.332126295E0,2.912194992E0
1.397649875E0,-3.671127570E-1,1.477294942E0,-1.961387095E0,2.482783006E0
1.407578875E0,-6.042097503E-1,1.070403284E0,-1.848342290E0,2.219730126E0
1.417507875E0,-8.997695446E-1,7.654799049E-1,-1.936687286E0,2.268546311E0
1.427436875E0,-1.178013979E0,6.715278670E-1,-2.028002084E0,2.439561244E0
1.437365875E0,-1.199150494E0,6.857061955E-1,-2.103783168E0,2.516755553E0
1.447293875E0,-1.101116661E0,7.059081794E-1,-2.185177580E0,2.546716575E0
1.457222875E0,-8.075016510E-1,7.437675852E-1,-2.310760569E0,2.558293092E0
1.467151875E0,-4.363016903E-1,6.458927965E-1,-2.289362099E0,2.418411770E0
1.477080875E0,-4.971396303E-1,4.948036677E-1,-2.107459313E0,2.221117565E0
1.487009875E0,-6.255339611E-1,4.338391355E-1,-1.918114191E0,2.063654811E0
1.496938875E0,-8.034296501E-1,4.815578239E-1,-1.693132628E0,1.934966469E0
1.506867875E0,-1.259349918E0,6.497380717E-1,-1.159584725E0,1.831053935E0
1.516795875E0,-1.739664770E0,8.183915055E-1,-1.764251143E-1,1.930627875E0
1.526724875E0,-1.763996496E0,1.062310153E0,8.808339214E-1,2.239655085E0
1.536653875E0,-1.725956850E0,1.199735216E0,1.499170545E0,2.581821830E0
1.546582875E0,-1.797730838E0,1.143550929E0,1.356043569E0,2.525549258E0
1.556511875E0,-1.936836683E0,1.222268046E0,9.139946508E-1,2.465899782E0
1.566440875E0,-1.886094545E0,1.473998866E0,5.165605724E-1,2.448848733E0
1.576369875E0,-1.591222968E0,1.550051554E0,1.162853318E-1,2.224448838E0
1.586298875E0,-1.222070410E0,1.422441919E0,7.279666543E-2,1.876724928E0
1.596226875E0,-8.849503613E-1,1.402390793E0,3.554955089E-1,1.695940487E0
1.606155875E0,-4.689098579E-1,1.361626199E0,7.620418882E-1,1.629297456E0
1.616084875E0,-4.396433741E-2,1.243177982E0,1.247075443E0,1.761425990E0
1.626013875E0,2.429810464E-2,1.036940254E0,1.471449480E0,1.800277495E0
1.635942875E0,-8.473784924E-3,8.808555561E-1,1.433866501E0,1.682840295E0
1.645871875E0,3.635097027E-2,7.821761906E-1,1.315774380E0,1.531137879E0
1.655800875E0,1.263027817E-2,7.108960006E-1,1.410282927E0,1.579376643E0
1.665729875E0,2.047382095E-1,7.432841666E-1,1.449058152E0,1.641389234E0
1.675657875E0,3.856054536E-1,8.449391802E-1,1.162762102E0,1.488163126E0
1.685586875E0,4.882214570E-1,1.048950288E0,6.670415908E-1,1.335515400E0
1.695515875E0,5.623393008E-1,1.207983006E0,2.460157514E-1,1.354980510E0
1.705444875E0,5.851180065E-1,1.256012181E0,4.566090703E-2,1.386367412E0
1.715373875E0,5.911134490E-1,1.124935441E0,6.586186767E-2,1.272490723E0
1.725302875E0,8.838867527E-1,7.405063006E-1,-5.460363865E-2,1.154377291E0
1.735231875E0,1.133891767E0,1.606573664E-1,-5.844584405E-2,1.146707131E0
1.745159875E0,1.062245541E0,-6.639343804E-1,1.896433300E-1,1.266940821E0
1.755088875E0,9.596970731E-1,-1.499384845E0,6.492011511E-1,1.894897232E0
1.765017875E0,8.410108745E-1,-1.966212217E0,1.431010721E0,2.573146218E0
1.774946875E0,5.094316471E-1,-1.912748639E0,2.139030184E0,2.914374391E0
1.784875875E0,7.786912501E-2,-1.518121663E0,2.403200371E0,2.843611965E0
1.794804875E0,-4.449625862E-1,-1.032952745E0,2.403642420E0,2.653767126E0
1.804733875E0,-8.739342070E-1,-5.846835583E-1,2.145238173E0,2.389071510E0
1.814661875E0,-9.067098972E-1,-3.251889516E-1,1.776195835E0,2.020579703E0
1.824590875E0,-8.111318949E-1,-2.945243986E-1,1.309882141E0,1.568588791E0
1.834519875E0,-6.798581028E-1,-3.899341473E-1,8.535443813E-1,1.158789752E0
1.844448875E0,-6.417424428E-1,-4.231372690E-1,6.674549890E-1,1.018024889E0
1.854377875E0,-6.735609439E-1,-3.571982181E-1,5.854700089E-1,9.612752173E-1
1.864306875E0,-6.333709842E-1,-3.982352932E-1,6.903205258E-1,1.017984568E0
1.874235875E0,-5.941417220E-1,-4.987367973E-1,8.862572140E-1,1.177792269E0
1.884164875E0,-6.241832542E-1,-6.344103268E-1,1.141772937E0,1.447662473E0
1.894093333E0,-7.563426071E-1,-7.387145676E-1,1.126554388E0,1.544952472E0
1.904022333E0,-8.295102784E-1,-7.350221971E-1,9.550742644E-1,1.463048797E0
1.913951333E0,-9.006492582E-1,-7.376566601E-1,6.911362123E-1,1.353874329E0
1.923880333E0,-8.081214559E-1,-6.871162516E-1,5.427063972E-1,1.191519729E0
1.933809333E0,-6.704236203E-1,-6.150569201E-1,4.034964716E-1,9.952749611E-1
1.943738333E0,-6.096453220E-1,-5.505785036E-1,3.711578608E-2,8.223026747E-1
1.953667333E0,-4.507121533E-1,-4.496248636E-1,-3.866184837E-1,7.448340855E-1
1.963595333E0,-1.969210669E-1,-4.010871264E-1,-5.954728407E-1,7.444707473E-1
1.973524333E0,-6.306806803E-3,-3.692402664E-1,-5.958529097E-1,7.010127246E-1
1.983453333E0,9.936787516E-2,-3.552072412E-1,-6.030590183E-1,7.069132467E-1
1.993382333E0,1.228374293E-1,-3.346868764E-1,-5.292741734E-1,6.381500528E-1
2.003311333E0,2.361251861E-2,-3.313719437E-1,-5.084691954E-1,6.073761921E-1
2.013240333E0,-1.835400063E-1,-2.644211783E-1,-5.767798769E-1,6.605153442E-1
2.023169333E0,-4.037718755E-1,-1.693112455E-1,-6.050774771E-1,7.468713267E-1
2.033098333E0,-5.875402156E-1,-6.714723185E-2,-6.030865002E-1,8.446452405E-1
2.043026333E0,-6.813163984E-1,-2.933007225E-2,-4.984581774E-1,8.446968939E-1
2.052955333E0,-6.746002865E-1,1.206002846E-2,-4.104938346E-1,7.897697000E-1
2.062884333E0,-6.989910695E-1,5.541377038E-2,-4.343101287E-1,8.247936039E-1
2.072813333E0,-7.743736660E-1,8.692792386E-2,-6.382750440E-1,1.007276561E0
2.082742333E0,-8.582823801E-1,1.495377164E-1,-8.943515146E-1,1.248549080E0
2.092671333E0,-8.374312091E-1,1.952566570E-1,-1.133130167E0,1.422462712E0
2.102600333E0,-7.489093342E-1,2.414204246E-1,-1.273764474E0,1.497205714E0
2.112529333E0,-6.767216563E-1,3.093715024E-1,-1.277980902E0,1.478816456E0
2.122457333E0,-6.683209616E-1,2.894675803E-1,-1.304757641E0,1.494268011E0
2.132386333E0,-6.464067668E-1,2.879603143E-1,-1.367416404E0,1.539672196E0
2.142315333E0,-6.597416344E-1,3.797320716E-1,-1.334468513E0,1.536314318E0
2.152244333E0,-7.018687767E-1,4.490037431E-1,-1.263715450E0,1.513671324E0
2.162173333E0,-6.130250126E-1,4.679721107E-1,-1.122757791E0,1.362124304E0
2.172102333E0,-5.221975806E-1,5.163725844E-1,-8.963816679E-1,1.158805874E0
2.182031333E0,-4.408660269E-1,5.368781850E-1,-6.641296774E-1,9.610771392E-1
2.191959333E0,-3.617531991E-1,5.463209997E-1,-7.621407062E-1,1.005082319E0
2.201888333E0,-1.501877806E-1,7.408018774E-1,-8.905976021E-1,1.168121518E0
2.211817333E0,8.446010649E-3,9.522893818E-1,-9.100384247E-1,1.317230555E0
2.221746333E0,1.972207367E-2,1.159072070E0,-1.093817582E0,1.593823681E0
2.231675333E0,1.831464887E-2,1.242755813E0,-1.220661816E0,1.742065643E0
2.241604333E0,3.543471158E-2,1.016709618E0,-1.309278708E0,1.658060555E0
2.251533333E0,1.055247009E-2,7.129561939E-1,-1.209533395E0,1.404061581E0
2.261461333E0,2.459923625E-2,4.525000857E-1,-9.101378274E-1,1.016716438E0
2.271390333E0,6.805223465E-2,1.889619832E-1,-4.997890037E-1,5.386341857E-1
2.281319333E0,7.835444391E-2,1.278179415E-2,-1.362752080E-1,1.577140623E-1
2.291248333E0,1.383278731E-1,-9.756795600E-2,1.699364591E-1,2.398593476E-1
2.301177333E0,2.026185939E-1,-1.392738795E-1,6.521352839E-1,6.969447156E-1
2.311106333E0,1.397279888E-1,-1.995807461E-1,1.008545882E0,1.037555387E0
2.321035333E0,-1.848392576E-2,-2.439325346E-1,9.860691851E-1,1.015961207E0
2.330964333E0,-2.206201243E-1,-1.309521952E-1,8.932557464E-1,9.293694341E-1
2.340892333E0,-3.864378047E-1,4.518070444E-3,9.237548232E-1,1.001337887E0
2.350821333E0,-4.005597076E-1,8.830830529E-2,9.994674951E-1,1.080361842E0
2.360750333E0,-2.179268968E-1,9.608013198E-2,9.653788126E-1,9.943237782E-1
2.370679333E0,1.602262804E-1,-7.757574096E-2,8.721905673E-1,8.901723665E-1
2.380608333E0,6.058598346E-1,-4.370036486E-1,9.098472208E-1,1.177225676E0
2.390537333E0,9.987345466E-1,-7.573269859E-1,1.250313631E0,1.770395163E0
2.400466333E0,1.240646722E0,-9.090805777E-1,1.965135160E0,2.495473499E0
2.410395333E0,1.211415029E0,-9.340811522E-1,2.560084675E0,2.982292326E0
2.420323333E0,9.951075187E-1,-8.321536584E-1,2.925847310E0,3.200515766E0
2.430252333E0,6.871291155E-1,-5.565944114E-1,3.111465417E0,3.234680942E0
2.440181333E0,2.840083274E-1,-1.098371686E-1,2.915588370E0,2.931446823E0
2.450110333E0,-1.244612011E-1,3.524002853E-1,2.174912208E0,2.206789447E0
2.460039333E0,-4.790980464E-1,7.442776085E-1,1.148686684E0,1.450160403E0
2.469968333E0,-6.485024089E-1,9.978624344E-1,1.814028490E-1,1.203823827E0
2.479897333E0,-5.559468323E-1,1.035302302E0,-5.038861477E-1,1.278604312E0
2.489825333E0,-3.297274143E-1,9.307630035E-1,-9.211411178E-1,1.350385462E0
2.499754333E0,-4.989370644E-2,6.917136249E-1,-8.290188199E-1,1.080846578E0
2.509683333E0,1.393160525E-1,3.938593832E-1,-4.537182069E-1,6.167612078E-1
2.519612333E0,2.605683017E-1,7.975236699E-2,-1.174986291E-1,2.967527720E-1
2.529541333E0,3.589257780E-1,-1.304373479E-1,2.997984409E-1,4.855107836E-1
2.539470333E0,4.156668663E-1,-2.425338806E-1,5.730329812E-1,7.483103798E-1
2.549399333E0,4.636745533E-1,-1.957614179E-1,6.796224600E-1,8.456969388E-1
2.559328333E0,4.622615737E-1,-4.144067913E-3,6.273541993E-1,7.792792998E-1
2.569256333E0,4.203668582E-1,2.103277092E-1,5.176651114E-1,6.992304401E-1
2.579185333E0,3.400883880E-1,3.505065183E-1,3.768331683E-1,6.168615467E-1
2.589114333E0,3.577741688E-1,2.965468043E-1,1.851170003E-1,5.002106225E-1
2.599043333E0,4.166030055E-1,2.214200234E-1,1.137382847E-1,4.853053558E-1
2.608972333E0,4.642899728E-1,1.311203027E-1,2.208902657E-1,5.306130625E-1
2.618901333E0,5.764202732E-1,-2.836879000E-2,5.055426639E-1,7.672278049E-1
2.628830333E0,5.774640012E-1,-1.540662387E-1,5.189567614E-1,7.915283941E-1
2.638759333E0,5.725941476E-1,-1.707566772E-1,4.084742063E-1,7.237907695E-1
2.648687333E0,4.806835189E-1,-1.544495968E-1,1.896649647E-1,5.393367428E-1
2.658616333E0,2.231823742E-1,-4.914036579E-2,-2.910855049E-1,3.700755583E-1
2.668545333E0,3.211875558E-2,1.024031648E-1,-7.563157099E-1,7.638923195E-1
2.678474333E0,-1.102866733E-1,2.273667879E-1,-1.123531963E0,1.151600138E0
2.688403333E0,-2.616693324E-1,3.027704345E-1,-1.460701128E0,1.514525854E0
2.698332333E0,-3.289316082E-1,3.340569120E-1,-1.741604292E0,1.803600713E0
2.708261333E0,-4.099953595E-1,3.831757162E-1,-1.979531005E0,2.057538049E0
2.718190333E0,-4.624100929E-1,4.260179729E-1,-2.139594440E0,2.230062505E0
2.728118333E0,-5.075696012E-1,3.937132759E-1,-2.132656719E0,2.227299200E0
2.738047333E0,-5.214470905E-1,3.048475116E-1,-1.965921611E0,2.056620250E0
2.747976333E0,-5.726561281E-1,1.856321400E-1,-1.799009331E0,1.897057961E0
2.757905333E0,-7.020009238E-1,1.395204858E-1,-1.785715102E0,1.923811240E0
2.767834333E0,-7.982370302E-1,2.079825372E-1,-1.844397174E0,2.020455401E0
2.777763333E0,-8.678998804E-1,2.958322746E-1,-1.784436901E0,2.006235776E0
2.787692333E0,-8.991772217E-1,4.088351257E-1,-1.776995734E0,2.033071488E0
2.797620333E0,-9.823702365E-1,5.408989497E-1,-1.820950423E0,2.138570410E0
2.807549333E0,-1.005806462E0,6.488039059E-1,-1.826164386E0,2.183453574E0
2.817478333E0,-9.931121564E-1,6.951960804E-1,-1.803421056E0,2.172992602E0
2.827407333E0,-9.996177685E-1,7.334763394E-1,-1.747545648E0,2.142694335E0
2.837336333E0,-9.097253063E-1,7.931597467E-1,-1.504136000E0,1.928503986E0
2.847265333E0,-8.612244067E-1,8.829708595E-1,-1.108326863E0,1.658232026E0
2.857194333E0,-8.753492332E-1,9.526121481E-1,-7.417099500E-1,1.491254450E0
2.867123333E0,-8.565825945E-1,1.018677353E0,-4.860421997E-1,1.416924243E0
2.877051333E0,-7.840747815E-1,1.150362204E0,-3.471948016E-1,1.434799879E0
2.886980333E0,-6.027745512E-1,1.310716977E0,-1.646002901E-1,1.452036297E0
2.896908833E0,-4.352351582E-1,1.480851803E0,-1.240416634E-1,1.548463122E0
2.906837833E0,-3.888345784E-1,1.608632614E0,-2.146530408E-1,1.668822083E0
2.916766833E0,-3.486463729E-1,1.631310017E0,-1.225061846E-1,1.672642948E0
2.926695833E0,-2.729702461E-1,1.544135341E0,2.485873568E-1,1.587659403E0
2.936624833E0,-9.873462170E-2,1.432908289E0,7.807787061E-1,1.634805823E0
2.946552833E0,1.635065684E-1,1.327288425E0,1.350860013E0,1.900855527E0
2.956481833E0,3.608603293E-1,1.228550733E0,1.666928331E0,2.101953173E0
2.966410833E0,4.543973610E-1,1.137581799E0,1.739925556E0,2.127888684E0
2.976339833E0,4.906486362E-1,1.085122699E0,1.747816374E0,2.114967951E0
2.986268833E0,5.106999081E-1,1.053484950E0,1.932234047E0,2.259241764E0
2.996197833E0,5.488933361E-1,1.108514924E0,2.141073201E0,2.472707764E0
3.006126833E0,5.863444600E-1,1.353099204E0,2.272001715E0,2.708628634E0
3.016055833E0,5.320513085E-1,1.599927718E0,2.164147484E0,2.743425164E0
3.025983833E0,6.322325313E-1,1.645702938E0,1.811330584E0,2.527642107E0
3.035912833E0,1.114642733E0,1.349018140E0,1.248577008E0,2.149702982E0
3.045841833E0,1.579658638E0,6.763230224E-1,7.946822155E-1,1.893212631E0
3.055770833E0,1.840606716E0,-1.213348411E-1,5.258716786E-1,1.918097038E0
3.065699833E0,1.912909584E0,-9.671615555E-1,4.787062830E-1,2.196311512E0
3.075628833E0,1.609022770E0,-1.598000768E0,5.801437801E-1,2.340753626E0
3.085557833E0,1.012948835E0,-1.832872896E0,8.284832150E-1,2.252081889E0
3.095486833E0,1.789157358E-1,-1.711218651E0,1.414501693E0,2.227351600E0
3.105414833E0,-5.214418280E-1,-1.347147616E0,1.805144230E0,2.311980530E0
3.115343833E0,-7.924439013E-1,-1.005020596E0,1.676735866E0,2.109378321E0
3.125272833E0,-6.571486866E-1,-7.518186895E-1,1.225148385E0,1.580526590E0
3.135201833E0,-3.160437602E-1,-7.043944815E-1,6.795639879E-1,1.028524408E0
3.145130833E0,-8.759830713E-2,-6.281592878E-1,1.852813071E-1,6.607470901E-1
3.155059833E0,4.998989314E-2,-5.455586690E-1,-8.837481737E-2,5.549264447E-1
3.164988833E0,2.505757025E-1,-4.973521035E-1,-9.708775342E-2,5.653081721E-1
3.174917833E0,5.118816304E-1,-5.000543942E-1,-2.557104349E-2,7.160524276E-1
3.184845833E0,5.797520167E-1,-5.217229329E-1,-1.452448368E-3,7.799418755E-1
3.194774833E0,7.046754402E-1,-6.358053263E-1,1.156058854E-1,9.561279254E-1
3.204703833E0,7.356349853E-1,-8.044007995E-1,4.396813810E-2,1.090941188E0
3.214632833E0,6.677958816E-1,-8.620857015E-1,-1.515200686E-1,1.100954780E0
3.224561833E0,6.009323859E-1,-7.930562510E-1,-2.828397614E-1,1.034435247E0
3.234490833E0,5.790506431E-1,-7.588179528E-1,-3.174371517E-1,1.005917829E0
3.244419833E0,6.211427021E-1,-6.656395016E-1,-3.577385008E-1,9.781978519E-1
3.254347833E0,6.184813419E-1,-4.799344906E-1,-4.340329707E-1,8.951206093E-1
3.264276833E0,6.478413811E-1,-3.810614361E-1,-5.133767635E-1,9.101988653E-1
3.274205833E0,6.440526778E-1,-3.426449369E-1,-6.030537558E-1,9.465110865E-1
3.284134833E0,4.694650510E-1,-3.195798638E-1,-6.901579732E-1,8.937822729E-1
3.294063833E0,2.634805074E-1,-3.952328210E-1,-6.163438922E-1,7.781457152E-1
3.303992833E0,-5.523718446E-2,-4.621132737E-1,-5.808735126E-1,7.443210745E-1
3.313921833E0,-4.056383067E-1,-4.650330077E-1,-6.161953729E-1,8.720635710E-1
3.323850833E0,-7.047654873E-1,-4.558446199E-1,-7.807026923E-1,1.146292024E0
3.333778833E0,-8.952516934E-1,-4.089085814E-1,-1.022740583E0,1.419394280E0
3.343707833E0,-1.006862176E0,-3.401711261E-1,-1.252188833E0,1.642396028E0
3.353636833E0,-1.049109771E0,-2.760962041E-1,-1.496948603E0,1.848706452E0
3.363565833E0,-1.033353864E0,-1.564519758E-1,-1.699761617E0,1.995366378E0
3.373494833E0,-9.639026830E-1,-7.647039793E-2,-1.740635408E0,1.991172451E0
3.383423833E0,-8.947900558E-1,2.651328575E-2,-1.746070980E0,1.962171263E0
3.393352833E0,-8.315971497E-1,2.380245079E-1,-1.714934556E0,1.920731636E0
3.403281833E0,-8.138371092E-1,4.039661858E-1,-1.616878504E0,1.854673992E0
3.413209833E0,-7.714754936E-1,4.880472831E-1,-1.471429015E0,1.731608482E0
3.423138833E0,-7.609010965E-1,5.623450384E-1,-1.279039248E0,1.590956887E0
3.433067833E0,-7.385200015E-1,6.095724876E-1,-9.830824274E-1,1.372385321E0
3.442996833E0,-6.454402220E-1,6.369740385E-1,-7.255336279E-1,1.161347515E0
3.452925833E0,-5.178650862E-1,6.730539172E-1,-5.859237528E-1,1.031742442E0
3.462854833E0,-4.762065983E-1,7.664851143E-1,-6.832670295E-1,1.131868362E0
3.472783833E0,-4.949238279E-1,9.014245990E-1,-8.442326903E-1,1.330505445E0
3.482712833E0,-4.248534268E-1,9.498241957E-1,-9.046467072E-1,1.378786460E0
3.492640833E0,-4.004237598E-1,9.376133821E-1,-9.618196124E-1,1.401625845E0
3.502569833E0,-3.574999344E-1,9.258660335E-1,-9.501462311E-1,1.373976701E0
3.512498833E0,-3.154356498E-1,8.546362026E-1,-8.677542847E-1,1.258133612E0
3.522427833E0,-3.151590765E-1,7.659213696E-1,-7.792496592E-1,1.137185481E0
3.532356833E0,-2.743133515E-1,6.666572095E-1,-6.680455577E-1,9.828349388E-1
3.542285833E0,-2.198991627E-1,5.667256627E-1,-4.806621766E-1,7.749643518E-1
3.552214833E0,-1.749603868E-1,4.937757637E-1,-3.606264406E-1,6.359851189E-1
3.562143833E0,-1.830742756E-1,4.011297746E-1,-2.813370270E-1,5.230409249E-1
3.572071833E0,-1.726548296E-1,2.794507152E-1,-5.267288804E-2,3.326812672E-1
3.582000833E0,-1.156371680E-1,1.288682476E-1,1.236686110E-1,2.127743058E-1
3.591929833E0,-5.568537354E-2,3.613067642E-3,2.777298796E-1,2.832804284E-1
3.601858833E0,-6.381358802E-2,-4.366539851E-2,3.662204719E-1,3.742943695E-1
3.611787833E0,-8.324768633E-2,-3.235922232E-2,3.439735705E-1,3.553802382E-1
3.621716833E0,-5.090322822E-2,-2.385254681E-2,3.442103827E-1,3.487705122E-1
3.631645833E0,1.601850575E-1,-1.262356849E-1,3.861314106E-1,4.366831426E-1
3.641574833E0,4.676500753E-1,-3.508921422E-1,3.964195865E-1,7.063783525E-1
3.651502833E0,9.934045172E-1,-8.372872945E-1,4.151113808E-1,1.363898826E0
3.661431833E0,1.477930826E0,-1.477626040E0,6.450104517E-1,2.187166369E0
3.671360833E0,1.769468321E0,-1.983582541E0,1.114268804E0,2.882223586E0
3.681289833E0,1.777336627E0,-2.215317053E0,1.881817600E0,3.407021075E0
3.691218833E0,1.315040847E0,-2.045414507E0,2.592915037E0,3.554751936E0
3.701147833E0,6.488228363E-1,-1.377890229E0,2.858661633E0,3.239058333E0
3.711076833E0,1.061424592E-1,-4.708870938E-1,2.351498705E0,2.400530574E0
3.721005833E0,-4.032596594E-1,3.184379026E-1,1.045548232E0,1.164985904E0
3.730933833E0,-5.740846029E-1,6.766659616E-1,-6.201182699E-1,1.082587929E0
3.740862833E0,-4.574276805E-1,7.213593006E-1,-1.992927561E0,2.168261881E0
3.750791833E0,-2.232423082E-1,5.776986207E-1,-2.785849180E0,2.853862028E0
3.760720833E0,7.214236200E-2,3.463356994E-1,-2.883162051E0,2.904785078E0
3.770649833E0,3.098878115E-1,1.227327642E-1,-2.414682548E0,2.437577813E0
3.780578833E0,4.503733072E-1,-7.870893136E-2,-1.502095907E0,1.570134811E0
3.790507833E0,5.415255520E-1,-2.021547635E-1,-5.573460710E-1,8.029639560E-1
3.800436833E0,6.188084936E-1,-2.744400899E-1,2.070616007E-1,7.078953462E-1
3.810364833E0,6.997541311E-1,-2.587242360E-1,6.713463110E-1,1.003643335E0
3.820293833E0,6.485640970E-1,-1.181472315E-1,8.375224257E-1,1.065850820E0
3.830222833E0,5.470137486E-1,1.147818665E-1,8.716608095E-1,1.035466796E0
3.840151833E0,5.249954733E-1,3.459170388E-1,9.285372609E-1,1.121365368E0
3.850080833E0,4.919546118E-1,4.998859213E-1,1.016230293E0,1.234758795E0
3.860009833E0,5.035201120E-1,5.854169454E-1,1.141494609E0,1.378134771E0
3.869938833E0,6.171519774E-1,6.255969648E-1,1.277906057E0,1.550900389E0
3.879867833E0,7.017073935E-1,6.650959298E-1,1.351994373E0,1.662117519E0
3.889795833E0,7.423154292E-1,6.913772638E-1,1.283197203E0,1.635735241E0
3.899725333E0,8.011270165E-1,6.955356574E-1,1.094130408E0,1.524039270E0
3.909654333E0,8.186625239E-1,6.970040394E-1,8.187376606E-1,1.351426771E0
3.919583333E0,8.313872346E-1,6.496958256E-1,4.132601523E-1,1.133178430E0
3.929512333E0,7.714620450E-1,6.387474990E-1,-1.726074672E-1,1.016339211E0
3.939441333E0,6.457214731E-1,7.102317569E-1,-7.034264749E-1,1.190039569E0
3.949370333E0,5.683938003E-1,7.437386414E-1,-1.097136462E0,1.442195235E0
3.959299333E0,5.392085928E-1,8.023091774E-1,-1.297183158E0,1.617754638E0
3.969227333E0,4.708642897E-1,9.124778831E-1,-1.398966810E0,1.735349303E0
3.979156333E0,3.197851011E-1,1.068939434E0,-1.604049128E0,1.953936445E0
3.989085333E0,1.852152336E-1,1.131401145E0,-1.840050938E0,2.167985399E0
3.999014333E0,1.091011503E-1,1.096738266E0,-2.015736964E0,2.297375327E0
4.008943333E0,1.259636432E-2,1.104780234E0,-2.096568874E0,2.369873219E0
4.018872333E0,1.958817244E-5,1.085925595E0,-2.052324162E0,2.321910607E0
4.028801333E0,2.316900730E-2,9.354872614E-1,-1.805771052E0,2.033834386E0
4.038730333E0,-2.941734195E-3,8.362547493E-1,-1.458004392E0,1.680805601E0
4.048659333E0,-5.604848564E-2,8.397472912E-1,-1.363273067E0,1.602133078E0
4.058587333E0,-2.981325692E-1,9.734318903E-1,-1.539032768E0,1.845284405E0
4.068516333E0,-5.682075664E-1,1.122822988E0,-1.784569048E0,2.183638703E0
4.078445333E0,-7.075934932E-1,1.315056342E0,-1.929971175E0,2.440256230E0
4.088374333E0,-7.918229270E-1,1.574315598E0,-1.796898487E0,2.516802996E0
4.098303333E0,-7.221998379E-1,1.759682567E0,-1.353873083E0,2.334743598E0
4.108232333E0,-4.128382757E-1,1.850890214E0,-7.269732124E-1,2.030940688E0
4.118161333E0,-8.231300890E-2,1.859397767E0,-1.154281300E-1,1.864794664E0
4.128090333E0,1.960372603E-1,1.843236355E0,2.754775321E-1,1.873990058E0
4.138018333E0,4.175973246E-1,1.806148489E0,4.692478269E-1,1.912263950E0
4.147947333E0,6.558488506E-1,1.768855679E0,7.182427347E-1,2.018628434E0
4.157876333E0,9.481818590E-1,1.719510734E0,1.050724187E0,2.227057996E0
4.167805333E0,1.097144355E0,1.689214701E0,1.312765403E0,2.404272249E0
4.177734333E0,1.147562265E0,1.668903228E0,1.432069067E0,2.480515864E0
4.187663333E0,1.221180756E0,1.530817430E0,1.408152201E0,2.411965395E0
4.197592333E0,1.284132757E0,1.382828933E0,1.324534678E0,2.305559566E0
4.207521333E0,1.294836670E0,1.274897665E0,1.342704901E0,2.259385427E0
4.217449333E0,1.371598040E0,1.149867383E0,1.528224775E0,2.353496791E0
4.227378333E0,1.483148004E0,1.018433962E0,1.659836243E0,2.447854590E0
4.237307333E0,1.519325897E0,8.934079202E-1,1.717095687E0,2.460680088E0
4.247236333E0,1.537431800E0,7.673458976E-1,1.688184714E0,2.408834552E0
4.257165333E0,1.461867648E0,6.586923516E-1,1.535851298E0,2.220308952E0
4.267094333E0,1.483404405E0,5.369346106E-1,1.217284464E0,1.992628634E0
4.277023333E0,1.611280380E0,1.303891084E-1,9.947400212E-1,1.898086798E0
4.286952333E0,1.767556574E0,-4.047202939E-1,1.121999992E0,2.132355210E0
4.296880333E0,2.026971512E0,-8.409418774E-1,1.590307002E0,2.710142637E0
4.306809333E0,2.352447416E0,-1.004401083E0,2.041682230E0,3.272811743E0
4.316738333E0,2.380263498E0,-1.450701951E0,2.406871837E0,3.682828059E0
4.326667333E0,1.915613044E0,-1.587628100E0,2.885384578E0,3.809931821E0
4.336596333E0,9.988333645E-1,-1.149897497E0,3.322451668E0,3.654944245E0
4.346525333E0,9.954153746E-2,-7.615849283E-1,3.062624794E0,3.157465874E0
4.356454333E0,-3.847970760E-1,-4.962685414E-1,2.346784680E0,2.429351681E0
4.366383333E0,-6.617223787E-1,-3.095488192E-1,1.362279625E0,1.545801654E0
4.376311333E0,-7.506284156E-1,-3.074908917E-1,1.982293814E-1,8.350380557E-1
4.386240333E0,-4.534825641E-1,-3.935867567E-1,-7.863008165E-1,9.893563287E-1
4.396169333E0,-2.382772538E-1,-5.453386675E-1,-1.230056537E0,1.366458707E0
4.406098333E0,-1.348780158E-1,-6.727953972E-1,-1.333479164E0,1.499670766E0
4.416027333E0,-2.737876868E-1,-7.817035894E-1,-1.212717204E0,1.468571829E0
4.425956333E0,-5.826303086E-1,-8.940151535E-1,-8.492911166E-1,1.363824245E0
4.435885333E0,-9.907969514E-1,-9.968782018E-1,-5.843841809E-1,1.522152955E0
4.445814333E0,-1.427693888E0,-1.002396073E0,-3.345437658E-1,1.776239640E0
4.455742333E0,-1.672391677E0,-1.045223858E0,-1.395777154E-1,1.977085930E0
4.465671333E0,-1.698231985E0,-1.056667590E0,-8.652125001E-2,2.002005044E0
4.475600333E0,-1.581497002E0,-1.028040645E0,-1.451577133E-1,1.891843307E0
4.485529333E0,-1.472772705E0,-9.657707222E-1,-4.384751004E-1,1.814947091E0
4.495458333E0,-1.524970214E0,-8.355726716E-1,-9.177327758E-1,1.966201742E0
4.505387333E0,-1.626155697E0,-6.929764773E-1,-1.295955827E0,2.191825781E0
4.515316333E0,-1.721362401E0,-5.744443528E-1,-1.371681948E0,2.274771680E0
4.525245333E0,-1.822295283E0,-4.487806718E-1,-1.210431527E0,2.233228307E0
4.535174333E0,-1.936263948E0,-3.987203197E-1,-9.048993069E-1,2.174152415E0
4.545102333E0,-2.061013125E0,-4.396262710E-1,-7.311352605E-1,2.230606448E0
4.555031333E0,-2.262797613E0,-4.028974244E-1,-6.876992190E-1,2.399064315E0
4.564960333E0,-2.367659824E0,-3.950886141E-1,-5.049936104E-1,2.452942438E0
4.574889333E0,-2.320549393E0,-4.101332076E-1,-4.292984802E-1,2.395298711E0
4.584818333E0,-2.264678078E0,-2.634176499E-1,-4.854978240E-1,2.331064948E0
4.594747333E0,-2.311902530E0,-8.789446861E-2,-7.422280133E-1,2.429716274E0
4.604676333E0,-2.206004777E0,1.097361580E-1,-1.088417678E0,2.462346877E0
4.614605333E0,-2.075566844E0,2.619289488E-1,-1.454645752E0,2.548053917E0
4.624533333E0,-1.804280012E0,3.062318400E-1,-1.739233831E0,2.524705650E0
4.634462333E0,-1.532520139E0,4.133364585E-1,-1.723520608E0,2.343072404E0
4.644391333E0,-1.415106295E0,5.089305407E-1,-1.472607229E0,2.104782215E0
4.654320333E0,-1.261231552E0,3.053407243E-1,-1.445024743E0,1.942172622E0
4.664249333E0,-1.170822489E0,1.177557604E-1,-1.403135290E0,1.831251037E0
4.674178333E0,-1.164452532E0,9.188621655E-2,-1.064555776E0,1.580402410E0
4.684107333E0,-1.073787945E0,8.861659974E-2,-5.432297230E-1,1.206636641E0
4.694036333E0,-7.989284635E-1,2.781944409E-2,-2.151775360E-2,7.997022101E-1
4.703964333E0,-5.510334170E-1,-6.377441168E-2,4.046027648E-1,6.865918726E-1
4.713893333E0,-3.430912256E-1,-1.041049969E-1,5.582675922E-1,6.634848483E-1
4.723822333E0,-1.266606313E-1,-1.052674234E-1,5.151788753E-1,5.408635868E-1
4.733751333E0,9.574464798E-2,-5.641598314E-2,2.823573661E-1,3.034394222E-1
4.743680333E0,1.589670825E-1,-2.956703067E-2,-1.475153106E-1,2.188732727E-1
4.753609333E0,1.998285949E-1,-4.334716380E-2,-5.435776323E-1,5.807642261E-1
4.763538333E0,4.258989090E-1,-1.805593881E-1,-7.956826741E-1,9.203817094E-1
4.773467333E0,6.949445039E-1,-4.302960151E-1,-8.351835394E-1,1.168603469E0
4.783396333E0,9.294938654E-1,-7.154711545E-1,-7.135345566E-1,1.372949155E0
4.793324333E0,9.942248815E-1,-9.948461482E-1,-5.297881436E-1,1.502956237E0
4.803253333E0,1.127874105E0,-1.230031102E0,-2.449562359E-1,1.686736514E0
4.813182333E0,1.394825227E0,-1.411050081E0,1.860630798E-1,1.992791815E0
4.823111333E0,1.524946241E0,-1.634832965E0,5.411954767E-1,2.300224425E0
4.833040333E0,1.265461428E0,-1.863752919E0,6.954456103E-1,2.357670920E0
4.842969333E0,9.747723645E-1,-1.819431317E0,7.528067958E-1,2.197095708E0
4.852898333E0,6.866262549E-1,-1.506597970E0,7.823030752E-1,1.831199377E0
4.862827333E0,4.324916446E-1,-1.275972968E0,7.244998401E-1,1.529724176E0
4.872755333E0,2.449357706E-1,-1.141570623E0,4.490842885E-1,1.250941133E0
4.882684333E0,1.838387990E-1,-1.074906225E0,2.586048067E-2,1.090820270E0
4.892613333E0,4.362420487E-1,-1.273233840E0,-1.259461015E-1,1.351774373E0
4.902542208E0,9.576651657E-1,-1.748145280E0,3.992274195E-1,2.032859321E0
4.912471208E0,1.654129361E0,-2.308821048E0,1.484011053E0,3.204541680E0
4.922400208E0,2.313583020E0,-2.800809573E0,2.782818568E0,4.576164315E0
4.932329208E0,2.368746237E0,-3.089985962E0,3.795161632E0,5.437115393E0
4.942258208E0,1.893898532E0,-2.999624846E0,4.086216731E0,5.411263072E0
4.952187208E0,8.045552391E-1,-2.556356198E0,3.320550739E0,4.267121202E0
4.962115208E0,-5.345857841E-1,-1.928548839E0,1.558726775E0,2.536673362E0
4.972044208E0,-1.592862235E0,-1.075845872E0,-3.001317322E-1,1.945439153E0
4.981973208E0,-1.982755160E0,-4.117527401E-1,-1.726346567E0,2.661039423E0
4.991902208E0,-1.513686842E0,-1.769864470E-1,-2.578073049E0,2.994834337E0
5.001831208E0,-7.188683867E-1,7.134129345E-2,-2.509234949E0,2.611153264E0
5.011760208E0,-2.733339429E-2,3.265403894E-1,-1.841782883E0,1.870705730E0
5.021689208E0,5.937502509E-1,1.989909813E-1,-1.143009623E0,1.303306475E0
5.031618208E0,1.084764338E0,-5.834994972E-2,-5.026436144E-1,1.196983287E0
5.041546208E0,1.268086243E0,-2.044019946E-1,-2.876186907E-2,1.284776300E0
5.051475208E0,1.139415339E0,-4.137229595E-1,2.520939320E-1,1.238137857E0
5.061404208E0,9.209598541E-1,-6.712378451E-1,1.837469977E-1,1.154335418E0
5.071333208E0,7.674131405E-1,-6.635738996E-1,-1.490262312E-1,1.025408244E0
5.081262208E0,6.262806505E-1,-2.375811428E-1,-4.910333830E-1,8.305335850E-1
5.091191208E0,4.870917749E-1,6.820250809E-2,-1.055699583E0,1.164650844E0
5.101120208E0,3.508118892E-1,1.140853170E-1,-1.741607215E0,1.780247211E0
5.111049208E0,3.984941787E-1,2.262001222E-1,-2.146645598E0,2.195006020E0
5.120977208E0,6.767883146E-1,3.845488617E-1,-2.366417876E0,2.491155116E0
5.130906208E0,8.883107561E-1,3.224780363E-1,-2.502924049E0,2.675390977E0
5.140835208E0,8.256642723E-1,1.866290903E-1,-2.559984688E0,2.696307384E0
5.150764208E0,4.913046938E-1,9.910153449E-2,-2.538019037E0,2.587033446E0
5.160693208E0,5.457557201E-2,-2.905978471E-2,-2.413389729E0,2.414181631E0
5.170622208E0,-3.912535715E-1,-2.055237830E-1,-2.116889117E0,2.162530674E0
5.180551208E0,-8.316366184E-1,-3.102020994E-1,-1.807827517E0,2.013972477E0
5.190480208E0,-1.277116098E0,-3.585369381E-1,-1.714888363E0,2.168044364E0
5.200409208E0,-1.542754521E0,-3.474126104E-1,-1.854490637E0,2.437195634E0
5.210337208E0,-1.634624219E0,-3.251239014E-1,-2.040192944E0,2.634404892E0
5.220266208E0,-1.572154321E0,-2.495205724E-1,-2.210284939E0,2.723837226E0
5.230195208E0,-1.412169238E0,-1.807923996E-1,-2.360391151E0,2.756511243E0
5.240124208E0,-1.436402439E0,-3.150573349E-1,-2.166813229E0,2.618700567E0
5.250053208E0,-1.499811984E0,-5.417573941E-1,-1.689596817E0,2.323289579E0
5.259982208E0,-1.660694615E0,-6.498753351E-1,-1.122722708E0,2.107308908E0
5.269911208E0,-1.713231263E0,-6.315109849E-1,-5.604965508E-1,1.910006248E0
5.279840208E0,-1.644577934E0,-5.650822297E-1,-2.737286299E-1,1.760364130E0
5.289768208E0,-1.502391776E0,-5.477274013E-1,-7.289314449E-2,1.600780986E0
5.299697208E0,-1.072704456E0,-5.788562232E-1,4.551501900E-1,1.301126847E0
5.309626208E0,-6.450373489E-1,-4.959742802E-1,9.683328259E-1,1.264805175E0
5.319555208E0,-3.446033156E-1,-3.582109559E-1,1.004841086E0,1.121058492E0
5.329484208E0,-2.499509275E-1,-1.674297577E-1,5.504960579E-1,6.273389033E-1
5.339413208E0,-1.511920398E-1,-4.292762607E-2,1.133482754E-1,1.937773091E-1
5.349342208E0,-6.207053304E-2,-2.350551456E-2,-2.236010349E-1,2.332438275E-1
5.359271208E0,-2.589188021E-1,1.257882267E-2,-2.200529444E-1,3.400301034E-1
5.369200208E0,-4.626299483E-1,3.839398742E-2,-8.240890324E-2,4.714783077E-1
5.379128208E0,-6.703505301E-1,9.109348029E-2,6.606067300E-2,6.797292608E-1
5.389057208E0,-7.428437251E-1,1.487081426E-1,3.168021441E-2,7.582443851E-1
5.398986208E0,-7.979999256E-1,1.689108574E-1,-5.816283882E-2,8.177515973E-1
5.408915208E0,-4.208486688E-1,2.087929612E-1,-1.149591833E-1,4.836566101E-1
5.418844208E0,6.656458604E-1,4.378915483E-1,3.096433979E-1,8.548172047E-1
5.428773208E0,2.113677242E0,9.196331209E-1,8.335293621E-1,2.451148253E0
5.438702208E0,3.127127184E0,1.372000036E0,1.112446226E0,3.591496224E0
5.448631208E0,3.962259852E0,1.575695980E0,1.190642211E0,4.427183058E0
5.458559208E0,4.171202502E0,1.662295582E0,1.170507324E0,4.640284939E0
5.468488208E0,3.681954859E0,1.641557847E0,1.003683338E0,4.154381301E0
5.478417208E0,2.813395413E0,1.413958486E0,8.838575166E-1,3.270424507E0
5.488346208E0,2.004220288E0,1.202224376E0,1.052229846E0,2.563089944E0
5.498275208E0,1.655390605E0,1.254425978E0,1.510731660E0,2.568309315E0
5.508204208E0,1.787257013E0,1.305899017E0,2.005700219E0,2.987054275E0
5.518133208E0,2.231048986E0,1.303632052E0,2.291661808E0,3.453802245E0
5.528062208E0,2.538657553E0,1.318611449E0,2.175251931E0,3.593777857E0
5.537991208E0,2.594230075E0,9.586767340E-1,1.953253033E0,3.385895476E0
5.547919208E0,2.861618569E0,3.190170693E-1,1.795631980E0,3.393365134E0
5.557848208E0,3.105450971E0,-2.473033082E-1,2.124199891E0,3.770571553E0
5.567777208E0,3.114686648E0,-7.701712722E-1,2.751659925E0,4.226827302E0
5.577706208E0,2.677411981E0,-1.153020056E0,3.634300051E0,4.658983476E0
5.587635208E0,1.821950882E0,-1.410549560E0,4.305746350E0,4.883503528E0
5.597564208E0,1.048689356E0,-1.317899843E0,4.381739688E0,4.694278651E0
5.607493208E0,-9.411619842E-2,-9.490685892E-1,3.849450105E0,3.965835998E0
5.617422208E0,5.724891901E-2,-2.193027467E-1,2.399576851E0,2.410257289E0
5.627351208E0,-6.259853661E-2,3.845158249E-1,3.553540063E-1,5.273020635E-1
5.637279208E0,-6.675999999E-2,9.867024386E-1,-1.377326850E0,1.695602504E0
5.647208208E0,-1.131798756E-1,1.241568536E0,-2.432507200E0,2.733384970E0
5.657137208E0,2.035599956E-1,1.243239085E0,-2.578377689E0,2.869688416E0
5.667066208E0,5.525759125E-1,1.190501293E0,-2.152510355E0,2.521097836E0
5.676995208E0,7.537183768E-1,1.265412312E0,-1.343662090E0,1.993686917E0
5.686924208E0,1.165645072E0,1.435596693E0,-5.502966678E-1,1.929376251E0
5.696853208E0,1.186521093E0,1.363740259E0,-3.622677541E-1,1.843599123E0
5.706782208E0,9.659524244E-1,1.293450295E0,-5.245455301E-1,1.697417381E0
5.716710208E0,4.815439367E-1,1.283094876E0,-4.150032073E-1,1.431937389E0
5.726639208E0,3.358348310E-1,1.312401706E0,-2.931793928E-3,1.354692536E0
5.736568208E0,2.425018671E-1,1.354763614E0,5.144093817E-1,1.469288473E0
5.746497208E0,1.980323303E-1,1.419946035E0,8.434392232E-1,1.663386086E0
5.756426208E0,1.675484562E-1,1.505773805E0,8.091184062E-1,1.717585466E0
5.766355208E0,1.892734936E-1,1.435889053E0,4.136279422E-1,1.506217084E0
5.776284208E0,3.046378890E-1,1.300368136E0,-2.019388551E-1,1.350755653E0
5.786213208E0,3.828496608E-1,1.148061032E0,-8.011697012E-1,1.451375515E0
5.796142208E0,3.287222779E-1,9.558449274E-1,-1.153156296E0,1.533449479E0
5.806070208E0,1.299476436E-1,7.665933609E-1,-1.147915437E0,1.386456498E0
5.815999208E0,-2.096124485E-1,5.888923842E-1,-9.231256628E-1,1.114850935E0
5.825928208E0,-5.041016176E-1,3.857279527E-1,-6.304853833E-1,8.946598867E-1
5.835857208E0,-7.716126108E-1,2.790308851E-1,-3.491851938E-1,8.917256055E-1
5.845786208E0,-1.129416893E0,1.498214525E-1,-2.314263636E-1,1.162577803E0
5.855715208E0,-1.323033113E0,9.978624344E-2,-1.553236824E-1,1.335851549E0
5.865644208E0,-1.494031427E0,2.753418767E-1,-1.907583940E-1,1.531121099E0
5.875573208E0,-1.472145006E0,4.658810002E-1,-2.398943013E-1,1.562627691E0
5.885501208E0,-1.148032673E0,7.000894690E-1,-1.738190103E-1,1.355845615E0
5.895430208E0,-6.525337717E-1,1.050292663E0,-7.370649219E-2,1.238687874E0
5.905359625E0,-1.686717063E-2,1.422824035E0,7.650496960E-3,1.422944576E0
5.915288625E0,5.840947437E-1,1.769624734E0,1.195931017E-2,1.863566847E0
5.925217625E0,1.049366464E0,2.014804918E0,-1.433778208E-1,2.276217484E0
5.935146625E0,1.372252344E0,2.206297722E0,-3.729921323E-1,2.624871285E0
5.945075625E0,1.442901327E0,2.443015816E0,-6.092500502E-1,2.901977970E0
5.955004625E0,1.487173520E0,2.544740996E0,-7.517069346E-1,3.041784860E0
5.964933625E0,1.720405211E0,2.586180214E0,-6.311923116E-1,3.169625518E0
5.974862625E0,1.974709391E0,2.691893780E0,-2.896617079E-1,3.351070457E0
5.984790625E0,2.113124095E0,2.649470476E0,1.182365477E-2,3.388971384E0
5.994719625E0,2.177253725E0,2.490954798E0,3.139867097E-1,3.323232951E0
6.004648625E0,2.254001062E0,2.391669661E0,6.157527387E-1,3.343614211E0
6.014577625E0,2.323229464E0,2.405349807E0,8.844305438E-1,3.459092399E0
6.024506625E0,2.420088299E0,2.388513334E0,1.007062443E0,3.546265372E0
6.034435625E0,2.431028732E0,2.285402364E0,1.061427223E0,3.501370076E0
6.044364625E0,2.744586256E0,2.151850204E0,1.168102656E0,3.677999026E0
6.054293625E0,2.691587970E0,1.920981081E0,1.141728205E0,3.498336377E0
6.064221625E0,1.910261380E0,1.574004380E0,1.099214562E0,2.708294848E0
6.074150625E0,1.349140639E0,1.241578476E0,1.410458635E0,2.313242559E0
6.084079625E0,1.134262188E0,9.286536205E-1,2.069657063E0,2.536223298E0
6.094008625E0,1.050069592E0,6.220788413E-1,2.836103659E0,3.087573837E0
6.103937625E0,1.004944290E0,3.794433653E-1,3.394225656E0,3.560148606E0
6.113866625E0,9.600379658E-1,2.135520101E-1,3.759573723E0,3.886086970E0
6.123795625E0,9.437897229E-1,1.623140287E-1,3.940426349E0,4.055125731E0
6.133724625E0,9.006323013E-1,2.199921334E-1,3.864381263E0,3.974037950E0
6.143653625E0,8.255362183E-1,4.112797004E-1,3.523257333E0,3.641977934E0
6.153581625E0,8.380986688E-1,6.210321897E-1,2.907865952E0,3.089300043E0
6.163510625E0,7.263925838E-1,7.078785449E-1,1.965127266E0,2.211439213E0
6.173439625E0,8.144183224E-1,7.970105767E-1,1.108871824E0,1.589999932E0
6.183368625E0,1.035467048E0,9.726416391E-1,5.417164636E-1,1.520421156E0
6.193297625E0,1.275875319E0,1.201347293E0,1.644620034E-1,1.760153658E0
6.203226625E0,1.639677383E0,1.439384519E0,-1.760011911E-4,2.181827157E0
6.213155625E0,1.883685493E0,1.704970316E0,4.093898803E-2,2.541037350E0
6.223084625E0,1.890507439E0,2.028199720E0,2.152439019E-1,2.780996659E0
6.233013625E0,1.704942250E0,2.310426108E0,3.397083190E-1,2.891418098E0
6.242941625E0,1.386641757E0,2.482423711E0,3.981784290E-1,2.871192941E0
6.252870625E0,9.987646598E-1,2.354812907E0,4.771199334E-1,2.601983494E0
6.262799625E0,7.137918341E-1,2.027609736E0,5.824557692E-1,2.227095585E0
6.272728625E0,5.156831977E-1,1.599494147E0,6.096429831E-1,1.787729077E0
6.282657625E0,4.642469957E-1,1.102238742E0,5.973766941E-1,1.336904796E0
6.292586625E0,5.318931413E-1,6.797768265E-1,4.829572088E-1,9.890674967E-1
6.302515625E0,4.261605719E-1,3.700100523E-1,3.037453115E-1,6.409223714E-1
6.312444625E0,4.589190128E-1,2.468641824E-1,-2.479903561E-1,5.771029385E-1
6.322373625E0,6.438714141E-1,7.792525828E-2,-9.171553633E-1,1.123306149E0
6.332301625E0,7.835008773E-1,-9.798588574E-2,-1.698379042E0,1.872956548E0
6.342230625E0,5.398345372E-1,-1.685875064E-1,-2.534912119E0,2.597233630E0
6.352159625E0,2.531414607E-1,-1.791423154E-1,-3.078885608E0,3.094464276E0
6.362088625E0,6.094085097E-2,-2.455199075E-1,-3.311748340E0,3.321395923E0
6.372017625E0,-9.281870127E-3,-3.004252625E-1,-3.139752784E0,3.154106694E0
6.381946625E0,1.143697840E-1,-4.580469006E-1,-2.696020160E0,2.737044412E0
6.391875625E0,1.802676120E-1,-6.097318608E-1,-2.115518530E0,2.209001586E0
6.401804625E0,1.897354236E-1,-7.016693866E-1,-1.529110043E0,1.693079143E0
6.411732625E0,6.276810586E-2,-7.529599929E-1,-9.802406806E-1,1.237643074E0
6.421661625E0,-9.893021107E-2,-7.911610222E-1,-5.914040557E-1,9.927143127E-1
6.431590625E0,-3.025875628E-1,-7.340354794E-1,-1.830935714E-1,8.147948049E-1
6.441519625E0,-4.303287596E-1,-5.074003243E-1,1.460780650E-1,6.811583748E-1
6.451448625E0,-5.077786392E-1,-2.690952963E-1,2.655220628E-1,6.330508595E-1
6.461377625E0,-6.142400640E-1,-1.650914562E-1,2.220366123E-1,6.736811578E-1
6.471306625E0,-7.598784184E-1,-7.584598839E-2,7.939758718E-2,7.677706699E-1
6.481235625E0,-8.290199894E-1,3.517392576E-2,-1.312963039E-1,8.400893210E-1
6.491164625E0,-9.422004497E-1,1.498512733E-1,-4.337487960E-1,1.048014842E0
6.501092625E0,-1.178298154E0,2.161171836E-1,-7.657270959E-1,1.421770432E0
6.511021625E0,-1.325693012E0,2.853201503E-1,-9.017906347E-1,1.628525683E0
6.520950625E0,-1.339552667E0,4.261450768E-1,-7.830778313E-1,1.609102813E0
6.530879625E0,-1.195301272E0,6.269209206E-1,-5.806823087E-1,1.469342341E0
6.540808625E0,-9.812352920E-1,8.167922920E-1,-3.087592989E-1,1.313508527E0
6.550737625E0,-6.753329426E-1,9.554894167E-1,1.458047077E-1,1.179107129E0
6.560666625E0,-4.082555205E-1,1.056645078E0,8.768820807E-1,1.432513028E0
6.570595625E0,-1.359746611E-1,1.203875629E0,1.866375103E0,2.225120595E0
6.580524625E0,-1.957881689E-2,1.202097491E0,2.640345311E0,2.901179944E0
6.590453625E0,-6.788295776E-1,9.520307887E-1,2.807980891E0,3.041698358E0
6.600381625E0,-1.281004497E0,7.304552293E-1,2.513357821E0,2.914018685E0
6.610310625E0,-1.505118917E0,6.183360386E-1,1.520515805E0,2.227036310E0
6.620239625E0,-1.678852558E0,7.517706692E-1,3.602060258E-2,1.839837638E0
6.630168625E0,-1.337774529E0,1.117217554E0,-1.299972280E0,2.174337527E0
6.640097625E0,-4.742033422E-1,1.599185414E0,-2.204441524E0,2.764385145E0
6.650026625E0,6.082378972E-1,1.976364153E0,-2.648539014E0,3.360167781E0
6.659955625E0,1.497681844E0,2.284322383E0,-2.842074251E0,3.941898744E0
6.669884625E0,2.194359462E0,2.454990914E0,-2.886767152E0,4.378997422E0
6.679813625E0,2.832882428E0,2.449042541E0,-2.627897758E0,4.574809160E0
6.689741625E0,3.353322336E0,2.377315332E0,-2.183060303E0,4.654261613E0
6.699670625E0,3.875669605E0,2.138716773E0,-1.782913116E0,4.772180163E0
6.709599625E0,4.181362332E0,1.788525274E0,-1.472236808E0,4.780177279E0
6.719528625E0,4.249851938E0,1.528700738E0,-1.190173849E0,4.670618935E0
6.729457625E0,4.309682403E0,1.236033561E0,-7.955300617E-1,4.553461261E0
6.739386625E0,4.255165595E0,9.054583007E-1,-3.050115260E-1,4.361114652E0
6.749315625E0,4.156066400E0,6.402467251E-1,3.767138851E-1,4.221932868E0
6.759244625E0,4.160018533E0,3.918628514E-1,1.313865264E0,4.380131576E0
6.769172625E0,3.838379572E0,1.668374348E-1,2.254429955E0,4.454598398E0
6.779101625E0,3.242545958E0,-5.374468267E-2,3.001734229E0,4.418981915E0
6.789030625E0,2.767527514E0,-3.457791907E-1,3.523395912E0,4.493672278E0
6.798959625E0,2.545839688E0,-8.503582335E-1,3.868092198E0,4.708136160E0
6.808888625E0,2.630383995E0,-1.519273272E0,4.238930216E0,5.214943970E0
6.818817625E0,2.686436573E0,-2.089959181E0,4.511356087E0,5.651301141E0
6.828746625E0,2.565293375E0,-2.251525351E0,4.854515140E0,5.934341897E0
6.838675625E0,2.347679889E0,-1.823142545E0,4.944628919E0,5.769298462E0
6.848604625E0,1.888229656E0,-9.462566632E-1,4.581835793E0,5.045198920E0
6.858532625E0,1.150221578E0,1.478410006E-2,3.859197414E0,4.026988072E0
6.868461625E0,4.619826615E-1,6.800884831E-1,2.735744973E0,2.856614934E0
6.878390625E0,7.560976088E-2,9.699191755E-1,1.499550906E0,1.787487892E0
6.888319625E0,-1.788856226E-1,1.272768109E0,4.800610828E-1,1.372004872E0
6.898247833E0,-5.612911874E-1,1.657510221E0,-2.910217702E-1,1.774001579E0
6.908176833E0,-1.079018279E0,2.009114993E0,-8.258864665E-1,2.425471492E0
6.918105833E0,-1.618475379E0,2.292510239E0,-1.153680791E0,3.034146522E0
6.928034833E0,-1.699513695E0,2.323903356E0,-1.203642325E0,3.120517337E0
6.937963833E0,-1.189294428E0,2.114479480E0,-1.229453397E0,2.719742701E0
6.947892833E0,-5.101064157E-1,1.815400246E0,-1.011258405E0,2.139750026E0
6.957820833E0,1.647406232E-1,1.463334129E0,-4.916429552E-1,1.552481576E0
6.967749833E0,4.020633191E-1,1.173168392E0,-3.906290889E-2,1.240767866E0
6.977678833E0,4.211737740E-1,1.057779438E0,5.764667585E-1,1.276165589E0
6.987607833E0,2.977437294E-1,1.026086360E0,1.146883988E0,1.567433388E0
6.997536833E0,5.153151155E-3,8.909174448E-1,1.478819018E0,1.726460581E0
7.007465833E0,-6.051195771E-1,8.491425973E-1,1.604075148E0,1.913183194E0
7.017394833E0,-1.163409389E0,6.139424407E-1,1.666627200E0,2.123227013E0
7.027323833E0,-1.481937046E0,1.025929070E-1,1.985887513E0,2.480002405E0
7.037252833E0,-1.806647549E0,-8.240539491E-2,2.404215740E0,3.008491206E0
7.047180833E0,-1.859128064E0,-9.327069104E-2,3.104620958E0,3.619907164E0
7.057109833E0,-1.728771992E0,-8.569445372E-2,3.873886789E0,4.242993636E0
7.067038833E0,-1.870744143E0,4.667715311E-2,4.184508426E0,4.583881889E0
7.076967833E0,-2.130832973E0,1.813718587E-1,4.252711519E0,4.760136571E0
7.086896833E0,-2.519800283E0,3.261828321E-1,4.051814638E0,4.782571543E0
7.096825833E0,-2.876595043E0,4.924232662E-1,3.678200069E0,4.695363188E0
7.106754833E0,-3.074558961E0,6.779296911E-1,3.404426416E0,4.637091835E0
7.116683833E0,-2.912216865E0,7.640363735E-1,3.083073969E0,4.309304323E0
7.126612833E0,-2.662881650E0,7.002572840E-1,2.783949712E0,3.915568278E0
7.136540833E0,-2.381044686E0,5.776920426E-1,2.367426228E0,3.407023457E0
7.146469833E0,-2.033187395E0,3.602229828E-1,2.117218608E0,2.957401936E0
7.156398833E0,-1.627499971E0,1.295971030E-1,1.953759694E0,2.546120286E0
7.166327833E0,-1.349133330E0,-5.858325362E-3,1.844093118E0,2.284923301E0
7.176256833E0,-1.086382847E0,-6.845686197E-2,1.748511023E0,2.059661339E0
7.186185833E0,-9.236805636E-1,-1.369792128E-1,1.534344178E0,1.796151760E0
7.196114833E0,-9.002566177E-1,-1.840919834E-1,1.112785073E0,1.443136325E0
7.206043833E0,-1.051703596E0,-2.359450918E-1,5.758501697E-1,1.222028624E0
7.215972833E0,-1.141701601E0,-2.634533179E-1,2.211586529E-1,1.192393117E0
7.225900833E0,-1.176313609E0,-3.058035314E-1,-6.881938934E-2,1.217360101E0
7.235829833E0,-1.191980054E0,-3.524976414E-1,-3.436472958E-1,1.289637352E0
7.245758833E0,-1.110342398E0,-3.705170059E-1,-5.133872885E-1,1.278166500E0
7.255687833E0,-8.554365402E-1,-4.346983838E-1,-4.844067335E-1,1.074888014E0
7.265616833E0,-5.947700053E-1,-5.169827414E-1,-4.108709800E-1,8.887280103E-1
7.275545833E0,-5.179744291E-1,-7.613419765E-1,-3.773038691E-1,9.951368369E-1
7.285474833E0,-4.647904944E-1,-1.209999418E0,-3.194181883E-1,1.334974447E0
7.295403833E0,-1.305578005E-1,-1.785316322E0,-2.391476119E-1,1.805987621E0
7.305332833E0,1.386409914E-1,-2.372519153E0,-1.254195598E-1,2.379873636E0
7.315260833E0,1.553616893E-1,-2.894129673E0,2.852798045E-2,2.898437107E0
7.325189833E0,1.686880785E-1,-3.328331044E0,2.002174348E-1,3.338612021E0
7.335118833E0,1.858590120E-1,-3.546410260E0,3.844003424E-1,3.572020847E0
7.345047833E0,1.206830227E-1,-3.491914211E0,6.164090887E-1,3.547955666E0
7.354976833E0,2.104880691E-2,-3.225089388E0,9.188264975E-1,3.353488743E0
7.364905833E0,-3.143112302E-2,-2.975570570E0,1.249798199E0,3.227538330E0
7.374834833E0,-1.249362874E-1,-2.779847597E0,1.540733138E0,3.180726386E0
7.384763833E0,-3.186188740E-1,-2.626581550E0,1.750745244E0,3.172626284E0
7.394692833E0,-2.671481735E-1,-2.626962789E0,1.825715612E0,3.210224157E0
7.404621833E0,5.994682431E-2,-2.867564018E0,1.713727106E0,3.341164111E0
7.414549833E0,5.232603121E-1,-3.208402312E0,1.417649249E0,3.546459663E0
7.424478833E0,9.319403404E-1,-3.365295972E0,1.183401311E0,3.687027046E0
7.434407833E0,1.259764486E0,-3.348470316E0,1.067897168E0,3.733585995E0
7.444336833E0,1.363035085E0,-3.177758224E0,1.001387136E0,3.599831686E0
7.454265833E0,9.818650371E-1,-2.808234952E0,8.507017574E-1,3.094177755E0
7.464194833E0,3.215699637E-1,-2.358523258E0,4.286155254E-1,2.418625739E0
7.474123833E0,-1.487034649E-1,-2.023065864E0,3.764262021E-2,2.028872884E0
7.484052833E0,-5.067302334E-1,-1.874447184E0,-4.413033986E-1,1.991249976E0
7.493981833E0,-8.457921427E-1,-1.774486401E0,-9.478339496E-1,2.182328008E0
7.503909833E0,-9.727556598E-1,-1.579817097E0,-1.301777900E0,2.266429204E0
7.513838833E0,-8.286767578E-1,-1.295142772E0,-1.568573779E0,2.196479835E0
7.523767833E0,-5.417848760E-1,-1.004267767E0,-1.827649578E0,2.154620055E0
7.533696833E0,-2.830742347E-1,-7.465698633E-1,-2.030987380E0,2.182294050E0
7.543625833E0,1.228079009E-1,-5.166985667E-1,-2.106479319E0,2.172398286E0
7.553554833E0,4.924092329E-1,-3.440697572E-1,-2.156879395E0,2.238968417E0
7.563483833E0,6.879512340E-1,-2.313860178E-1,-2.058253824E0,2.182481430E0
7.573412833E0,8.647447228E-1,-1.668675479E-1,-1.826621346E0,2.027849539E0
7.583341833E0,8.401758921E-1,-9.459216177E-2,-1.638546531E0,1.843821559E0
7.593269833E0,5.574764639E-1,5.500183403E-2,-1.459236401E0,1.563066244E0
7.603198833E0,2.657641375E-1,1.975815099E-1,-1.274207109E0,1.316538182E0
7.613127833E0,8.216273546E-2,2.826380324E-1,-1.044950062E0,1.085613009E0
7.623056833E0,-1.694745290E-1,3.495459670E-1,-9.432511944E-1,1.020111178E0
7.632985833E0,-4.270970035E-1,4.690466827E-1,-8.023888457E-1,1.022860939E0
7.642914833E0,-5.404669136E-1,6.511392108E-1,-5.469967917E-1,1.007617113E0
7.652843833E0,-7.621231645E-1,8.663965613E-1,-4.033432746E-1,1.222358588E0
7.662772833E0,-9.832204217E-1,1.003878927E0,-4.187325615E-1,1.466230628E0
7.672701833E0,-1.174368825E0,1.113555151E0,-6.437492073E-1,1.741711874E0
7.682630833E0,-1.355202155E0,1.110877711E0,-9.938778493E-1,2.014550905E0
7.692558833E0,-1.541099174E0,1.079045761E0,-1.383694468E0,2.335366523E0
7.702487833E0,-1.772367663E0,1.104340816E0,-1.737432888E0,2.716528817E0
7.712416833E0,-1.984875945E0,1.226407582E0,-1.934845706E0,3.031078353E0
7.722345833E0,-2.133256643E0,1.363222488E0,-1.993521638E0,3.222310969E0
7.732274833E0,-2.207133874E0,1.508375816E0,-2.047242347E0,3.367170737E0
7.742203833E0,-2.205987235E0,1.567750783E0,-2.059703641E0,3.400970639E0
7.752132833E0,-2.084751066E0,1.616021302E0,-1.958676618E0,3.285441515E0
7.762061833E0,-1.867609450E0,1.660920317E0,-1.736414303E0,3.043313324E0
7.771990833E0,-1.610610874E0,1.710220239E0,-1.443996218E0,2.757543423E0
7.781918833E0,-1.311918726E0,1.788959137E0,-1.152792599E0,2.500087261E0
7.791847833E0,-9.631896150E-1,1.842415845E0,-9.595666802E-1,2.289759505E0
7.801776833E0,-8.262758911E-1,1.792739362E0,-9.260445929E-1,2.180413919E0
7.811705833E0,-8.135453331E-1,1.713398201E0,-9.009062433E-1,2.099814626E0
7.821634833E0,-7.839303553E-1,1.708264345E0,-7.901751816E-1,2.038894478E0
7.831563833E0,-7.413585323E-1,1.671384787E0,-6.158275831E-1,1.929347867E0
7.841492833E0,-6.291668361E-1,1.581949284E0,-3.563527107E-1,1.739368190E0
7.851421833E0,-4.377015138E-1,1.442732050E0,-1.051814693E-1,1.511331044E0
7.861350833E0,-1.558505166E-1,1.227532294E0,9.107330739E-2,1.240733358E0
7.871279833E0,1.809882814E-1,9.332793528E-1,2.145857978E-1,9.745841025E-1
7.881207833E0,5.564999789E-1,7.403911105E-1,4.667814714E-1,1.037186659E0
7.891136833E0,8.197743720E-1,6.147350308E-1,7.710363677E-1,1.282351847E0
7.901066083E0,9.530294931E-1,4.742232227E-1,9.504023391E-1,1.427031004E0
7.910995083E0,1.321938515E0,3.594546586E-1,1.147825974E0,1.787241885E0
7.920924083E0,1.687025211E0,2.771197227E-1,1.308636976E0,2.152993298E0
7.930853083E0,1.860282304E0,2.210191968E-1,1.321026641E0,2.292293856E0
7.940782083E0,1.874064776E0,1.735789821E-1,1.205862806E0,2.235252459E0
7.950711083E0,1.668565552E0,2.239609310E-1,1.103505249E0,2.012956366E0
7.960640083E0,1.473481387E0,4.139860842E-1,1.035565281E0,1.847952199E0
7.970568083E0,1.451164320E0,5.430812037E-1,1.015536813E0,1.852600900E0
7.980497083E0,1.494610301E0,6.254541466E-1,1.194977044E0,2.013212105E0
7.990426083E0,1.488712800E0,6.597039199E-1,1.345256041E0,2.112152664E0
8.000355083E0,1.562002970E0,4.728736854E-1,1.373199885E0,2.132871474E0
8.010284083E0,1.833158240E0,-9.372501969E-2,1.314796726E0,2.257862694E0
8.020213083E0,2.239009970E0,-8.012310970E-1,1.366102535E0,2.742512179E0
8.030142083E0,2.419065621E0,-1.289297603E0,1.620918930E0,3.184579245E0
8.040071083E0,2.282978693E0,-1.481649071E0,1.957645462E0,3.352558938E0
8.050000083E0,1.828714941E0,-1.319037126E0,2.262553200E0,3.194245491E0
8.059929083E0,9.787753683E-1,-7.538671884E-1,2.505179905E0,2.793249598E0
8.069857083E0,5.568186522E-2,2.555437893E-2,2.441118395E0,2.441887080E0
8.079786083E0,-5.417632413E-1,5.649649930E-1,1.947222800E0,2.098658973E0
8.089715083E0,-6.228190988E-1,5.453405678E-1,1.258386882E0,1.506266082E0
8.099644083E0,-4.195464939E-1,2.350864282E-1,5.614823914E-1,7.392884181E-1
8.109573083E0,-3.382666880E-1,8.234078318E-2,1.916307986E-2,3.486711637E-1
8.119502083E0,-4.552589482E-1,1.164721504E-1,-2.872468078E-1,5.507605653E-1
8.129431083E0,-5.072032732E-1,1.977680361E-1,-3.022823381E-1,6.226893033E-1
8.139360083E0,-4.455063772E-1,1.720329782E-1,-3.936637938E-2,4.791878437E-1
8.149289083E0,-4.053488696E-1,5.784358084E-2,3.692013824E-1,5.513286195E-1
8.159217083E0,-3.810057414E-1,4.267005622E-3,7.211283356E-1,8.156038614E-1
8.169146083E0,-1.548950815E-1,-7.422952563E-2,1.101599641E0,1.114909987E0
8.179075083E0,-8.771408200E-3,-2.480280706E-1,1.366442842E0,1.388798367E0
8.189004083E0,-9.235560179E-2,-2.871588072E-1,1.426014276E0,1.457568678E0
8.198933083E0,-2.034117687E-1,-2.964865780E-1,1.281142491E0,1.330641470E0
8.208862083E0,-5.594534075E-1,-3.222146192E-1,1.078437066E0,1.256915622E0
8.218791083E0,-9.779298609E-1,-3.326358193E-1,8.236855745E-1,1.321155300E0
8.228720083E0,-1.325000117E0,-3.419764540E-1,5.717723215E-1,1.483070056E0
8.238649083E0,-1.701403515E0,-3.168705565E-1,4.830022323E-1,1.796794932E0
8.248578083E0,-1.986004457E0,-2.042689705E-1,4.730034935E-1,2.051748479E0
8.258506083E0,-2.069993863E0,-6.626883388E-2,5.226492780E-1,2.135984181E0
8.268435083E0,-2.041891560E0,7.006104559E-2,5.738819969E-1,2.122161690E0
8.278364083E0,-1.954106142E0,1.511590031E-1,5.468894953E-1,2.034813991E0
8.288293083E0,-1.924737917E0,1.355492762E-1,3.920739359E-1,1.968936674E0
8.298222083E0,-1.916878674E0,6.846066266E-2,1.612469119E-1,1.924866562E0
8.308151083E0,-1.913786082E0,-1.947093576E-2,-1.349747872E-1,1.918638704E0
8.318080083E0,-1.965465528E0,-1.302362037E-1,-5.326661432E-1,2.040526753E0
8.328009083E0,-2.035895825E0,-2.018400371E-1,-9.141121799E-1,2.240806169E0
8.337938083E0,-2.049924465E0,-2.587322760E-1,-1.258871031E0,2.419481138E0
8.347867083E0,-1.967376983E0,-3.655030185E-1,-1.664449697E0,2.602798002E0
8.357795083E0,-1.964328829E0,-5.821406043E-1,-2.141734521E0,2.963866089E0
8.367724083E0,-2.068798108E0,-8.392149022E-1,-2.539349864E0,3.381198751E0
8.377653083E0,-2.147182957E0,-9.331811196E-1,-2.764229684E0,3.622455990E0
8.387582083E0,-2.180041385E0,-9.113911781E-1,-2.888760175E0,3.732043632E0
8.397511083E0,-2.112544051E0,-7.257467589E-1,-2.811780996E0,3.591053202E0
8.407440083E0,-2.011760858E0,-5.104359064E-1,-2.612381587E0,3.336504776E0
8.417369083E0,-1.836686450E0,-4.308129090E-1,-2.339185054E0,3.005129547E0
8.427298083E0,-1.619553021E0,-3.616692916E-1,-1.952438516E0,2.562376401E0
8.437227083E0,-1.406855873E0,-2.487586802E-1,-1.529177871E0,2.092727715E0
8.447155083E0,-1.190348681E0,-1.953312090E-1,-1.148457474E0,1.665544605E0
8.457084083E0,-7.994395101E-1,-2.275055131E-1,-7.428846556E-1,1.114782445E0
8.467013083E0,-4.036572701E-1,-2.981369546E-1,-3.640950090E-1,6.199919443E-1
8.476942083E0,-1.112812847E-1,-4.098792922E-1,-1.247415751E-1,4.426567735E-1
8.486871083E0,1.724244493E-1,-5.945498577E-1,-3.863781631E-2,6.202520494E-1
8.496800083E0,4.356210744E-1,-8.464712968E-1,-6.876442552E-2,9.544673505E-1
8.506729083E0,6.823472625E-1,-1.080833840E0,-1.818039680E-1,1.291066326E0
8.516658083E0,8.925458944E-1,-1.264612705E0,-3.066385138E-1,1.577945070E0
8.526587083E0,1.003457050E0,-1.362109179E0,-3.154631317E-1,1.720983572E0
8.536516083E0,1.092820047E0,-1.397243636E0,-2.886425382E-1,1.797181112E0
8.546444083E0,1.208699582E0,-1.558766828E0,-2.672212636E-1,1.990506445E0
8.556373083E0,1.242892345E0,-1.792877064E0,-1.801822427E-1,2.188984968E0
8.566302083E0,1.178378845E0,-1.929708342E0,-1.004984343E-1,2.263283218E0
8.576231083E0,1.164405169E0,-2.035167847E0,-5.177534044E-2,2.345299181E0
8.586160083E0,9.725738114E-1,-2.180467647E0,-2.378571314E-1,2.399357204E0
8.596089083E0,6.439298862E-1,-2.244735564E0,-6.659388059E-1,2.428365282E0
8.606018083E0,2.879092973E-1,-2.287449767E0,-1.206482610E0,2.602098862E0
8.615947083E0,1.861431867E-1,-2.323798398E0,-1.721506827E0,2.897977577E0
8.625876083E0,4.870169306E-1,-2.393694552E0,-2.022706845E0,3.171482632E0
8.635804083E0,1.119585677E0,-2.383894619E0,-1.952384722E0,3.278449594E0
8.645733083E0,1.829453444E0,-2.222544504E0,-1.285590760E0,3.152673085E0
8.655662083E0,2.339285041E0,-1.991387404E0,-1.931192073E-1,3.078176948E0
8.665591083E0,2.528611452E0,-1.765666754E0,8.164116383E-1,3.190295115E0
8.675520083E0,2.294028177E0,-1.303939615E0,1.731906100E0,3.156314708E0
8.685449083E0,1.600634354E0,-5.815207994E-1,2.539052825E0,3.057284093E0
8.695378083E0,7.715681720E-1,-3.603171229E-2,2.850610894E0,2.953404509E0
8.705307083E0,-8.613708794E-2,2.749121064E-1,2.655883117E0,2.671462408E0
8.715236083E0,-5.350991696E-1,3.018326873E-1,2.044532747E0,2.134841504E0
8.725165083E0,-6.810409945E-1,3.056994510E-1,1.532101479E0,1.704289861E0
8.735093083E0,-5.730856061E-1,5.463936514E-1,1.456514814E0,1.657832482E0
8.745022083E0,-1.348502415E-1,7.808541352E-1,1.795803888E0,1.962862545E0
8.754951083E0,4.794377697E-1,7.544545412E-1,2.257603824E0,2.428134522E0
8.764880083E0,1.102966720E0,5.743234617E-1,2.536663945E0,2.825074688E0
8.774809083E0,1.429079386E0,3.477245593E-1,2.526280459E0,2.923229929E0
8.784738083E0,1.449680881E0,1.299958831E-1,2.203415045E0,2.640740700E0
8.794667083E0,1.238975880E0,-1.038436264E-1,1.665565638E0,2.078449813E0
8.804596083E0,9.329846531E-1,-2.344160450E-1,1.046141725E0,1.421205036E0
8.814525083E0,4.647881556E-1,-2.128795803E-1,5.341951901E-1,7.393985707E-1
8.824454083E0,-6.992334366E-2,-2.959509730E-2,1.867583138E-1,2.016031040E-1
8.834383083E0,-4.692133284E-1,2.480692935E-1,-6.531047523E-2,5.347569355E-1
8.844311083E0,-8.047318250E-1,5.503305817E-1,-2.473676276E-1,1.005807040E0
8.854240083E0,-1.086447167E0,8.889621359E-1,-3.236404628E-1,1.440612465E0
8.864169083E0,-1.251115869E0,1.229889892E0,-3.833645082E-1,1.795797430E0
8.874098083E0,-1.266604559E0,1.489932529E0,-4.376462576E-1,2.003926220E0
8.884027083E0,-1.187694629E0,1.686038201E0,-5.106478679E-1,2.124642227E0
8.893956083E0,-1.079170892E0,1.848485547E0,-6.243075076E-1,2.229634161E0
8.903884750E0,-9.738227767E-1,1.956652020E0,-7.976850531E-1,2.326611134E0
8.913813750E0,-8.998098904E-1,1.981255349E0,-1.035952074E0,2.410026410E0
8.923742750E0,-8.585115910E-1,1.972772208E0,-1.251260880E0,2.488880497E0
8.933670750E0,-8.312080175E-1,1.976567051E0,-1.438395170E0,2.581996271E0
8.943599750E0,-7.944740546E-1,2.032285169E0,-1.539851378E0,2.670676749E0
8.953528750E0,-7.178252435E-1,2.075667416E0,-1.467180720E0,2.641266282E0
8.963457750E0,-6.188096631E-1,2.105855421E0,-1.260927497E0,2.531302157E0
8.973386750E0,-5.189357114E-1,2.172845802E0,-1.007210963E0,2.450515675E0
8.983315750E0,-3.646586806E-1,2.246084517E0,-6.856281352E-1,2.376543193E0
8.993244750E0,-1.433029765E-1,2.293281487E0,-3.675594842E-1,2.326967060E0
9.003173750E0,8.444081068E-2,2.341475993E0,-9.727837265E-2,2.345016665E0
9.013102750E0,2.325899595E-1,2.364994079E0,9.547275245E-2,2.378320863E0
9.023031750E0,2.537896246E-1,2.362309037E0,2.090721658E-1,2.385083716E0
9.032959750E0,3.269833159E-1,2.407928429E0,3.010672867E-1,2.448607547E0
9.042888750E0,4.501899970E-1,2.438860200E0,4.388493222E-1,2.518590645E0
9.052817750E0,5.616373426E-1,2.427547592E0,5.445856923E-1,2.550489638E0
9.062746750E0,6.268273652E-1,2.432065735E0,5.946331805E-1,2.580977510E0
9.072675750E0,7.053683352E-1,2.458662381E0,6.334870514E-1,2.635122584E0
9.082604750E0,7.980513811E-1,2.511749251E0,6.363460475E-1,2.711218656E0
9.092533750E0,9.578259641E-1,2.529074551E0,5.522490531E-1,2.760186168E0
9.102462750E0,1.082091576E0,2.289276729E0,3.333415782E-1,2.553982523E0
9.112391750E0,1.145423938E0,1.870931838E0,3.498506069E-2,2.193993139E0
9.122320750E0,1.325577822E0,1.472937596E0,-1.412587899E-1,1.986619181E0
9.132248750E0,1.699283899E0,1.117957812E0,-1.250532317E-1,2.037899347E0
9.142177750E0,2.028421329E0,8.830026537E-1,3.660006166E-2,2.212583635E0
9.152106750E0,2.336304715E0,7.169212639E-1,2.381836984E-1,2.455407766E0
9.162035750E0,2.492903675E0,5.341378874E-1,4.006652498E-1,2.580775980E0
9.171964750E0,2.538954592E0,3.547704542E-1,5.619527999E-1,2.624489178E0
9.181893750E0,2.540108832E0,2.851669532E-1,7.547615200E-1,2.665171293E0
9.191822750E0,2.463809685E0,2.802453518E-1,1.007442513E0,2.676534333E0
9.201751750E0,2.387799974E0,3.181698078E-1,1.270070204E0,2.723214840E0
9.211680750E0,2.417181063E0,3.442501438E-1,1.556313629E0,2.895407496E0
9.221609750E0,2.418214266E0,2.660997677E-1,1.793909098E0,3.022694026E0
9.231537750E0,2.515731205E0,-9.078387022E-2,1.963896427E0,3.192809795E0
9.241466750E0,2.649527194E0,-6.507033008E-1,2.140505437E0,3.467733072E0
9.251395750E0,2.753072612E0,-1.176203097E0,2.395811829E0,3.834420015E0
9.261324750E0,2.907458401E0,-1.489256591E0,2.639475245E0,4.199765365E0
9.271253750E0,2.831774381E0,-1.589010674E0,2.892000994E0,4.348283664E0
9.281182750E0,2.526367875E0,-1.534639755E0,3.089445387E0,4.275783743E0
9.291111750E0,1.816353927E0,-1.143233571E0,3.147571388E0,3.809636496E0
9.301040750E0,7.944220144E-1,-4.716790992E-1,2.829510631E0,2.976527830E0
9.310969750E0,-5.430893898E-2,2.542018533E-2,2.104945595E0,2.105799516E0
9.320898750E0,-4.835220498E-1,2.231057757E-1,1.290797414E0,1.396326510E0
9.330826750E0,-6.872764653E-1,2.399562818E-1,7.805787313E-1,1.067347700E0
9.340755750E0,-6.871840793E-1,1.427422285E-1,4.440200150E-1,8.305125383E-1
9.350684750E0,-5.853343534E-1,2.331425214E-1,2.521576667E-1,6.786421955E-1
9.360613750E0,-5.629541355E-1,3.445425045E-1,3.424199653E-1,7.435578853E-1
9.370542750E0,-4.988756686E-1,2.974513686E-1,9.435230899E-1,1.107966638E0
9.380471750E0,-6.389252543E-3,1.616684961E-1,1.671485066E0,1.679297428E0
9.390400750E0,6.706060535E-1,-7.133486152E-2,1.797469175E0,1.919816808E0
9.400329750E0,1.076201676E0,-2.370455378E-1,1.456713327E0,1.826585435E0
9.410258750E0,1.105654101E0,-3.224803752E-1,8.392035002E-1,1.425035823E0
9.420187750E0,7.723481905E-1,-2.391715854E-1,7.355387986E-2,8.118712632E-1
9.430115750E0,3.149912614E-1,-4.604682326E-3,-7.685109553E-1,8.305719633E-1
9.440044750E0,6.585835934E-2,1.952736139E-1,-1.444377456E0,1.459004916E0
9.449973750E0,-1.330943227E-1,2.187712348E-1,-1.917487954E0,1.934511568E0
9.459902750E0,-4.126994044E-1,2.755968153E-1,-2.122584890E0,2.179825915E0
9.469831750E0,-7.285665786E-1,3.405880326E-1,-2.109523672E0,2.257631412E0
9.479760750E0,-9.535650980E-1,2.950844157E-1,-1.979407044E0,2.216847639E0
9.489689750E0,-1.030831375E0,2.423115402E-1,-1.747436597E0,2.043248117E0
9.499618750E0,-1.146841303E0,5.010946870E-2,-1.587342171E0,1.958931112E0
9.509547750E0,-1.367677190E0,-1.190919954E-1,-1.576716319E0,2.090635824E0
9.519476750E0,-1.796288037E0,-1.671552309E-1,-1.792932905E0,2.543462205E0
9.529404750E0,-2.216478310E0,-1.974628115E-1,-2.142650195E0,3.089128926E0
9.539333750E0,-2.663540046E0,-2.179657808E-1,-2.498253878E0,3.658309322E0
9.549262750E0,-2.959560601E0,-1.758307448E-1,-2.732783651E0,4.032123744E0
9.559191750E0,-3.063280851E0,-8.444724262E-2,-2.782515390E0,4.139228528E0
9.569120750E0,-3.012065674E0,-1.773226619E-2,-2.670310537E0,4.025346249E0
9.579049750E0,-2.756575679E0,1.590150297E-2,-2.351406904E0,3.623268795E0
9.588978750E0,-2.348814833E0,-5.526642054E-2,-1.900462324E0,3.021877321E0
9.598907750E0,-1.958092774E0,-2.647540310E-1,-1.453935023E0,2.453191606E0
9.608836750E0,-1.657734754E0,-4.666285667E-1,-1.106123047E0,2.046786489E0
9.618765750E0,-1.307118747E0,-6.473510921E-1,-9.067905888E-1,1.717524971E0
9.628694750E0,-1.090204003E0,-8.947479558E-1,-8.096043098E-1,1.626215795E0
9.638622750E0,-1.209752666E0,-1.111285847E0,-7.565250403E-1,1.808531969E0
9.648551750E0,-1.474051491E0,-1.195630178E0,-6.913303399E-1,2.019974495E0
9.658480750E0,-1.674857156E0,-1.157659822E0,-4.704125923E-1,2.089643692E0
9.668409750E0,-1.707072390E0,-1.123181714E0,-1.984164923E-1,2.053047105E0
9.678338750E0,-1.620441797E0,-1.086867289E0,3.519088268E-2,1.951499557E0
9.688267750E0,-1.538668486E0,-9.982226229E-1,2.379813847E-1,1.849482159E0
9.698196750E0,-1.544173640E0,-8.934472427E-1,3.878996086E-1,1.825701595E0
9.708125750E0,-1.500449916E0,-8.341807419E-1,4.536237743E-1,1.775663816E0
9.718054750E0,-1.330781844E0,-9.175553128E-1,4.589219365E-1,1.680326579E0
9.727983750E0,-1.196782957E0,-1.057084789E0,3.985631758E-1,1.645773466E0
9.737911750E0,-1.093918739E0,-1.221486566E0,3.465855217E-1,1.675950226E0
9.747840750E0,-9.645765746E-1,-1.308322104E0,3.984430155E-1,1.673580453E0
9.757769750E0,-8.113286537E-1,-1.394167123E0,4.589070261E-1,1.677066430E0
9.767698750E0,-6.461682004E-1,-1.527078720E0,4.763925397E-1,1.725239871E0
9.777627750E0,-3.762262273E-1,-1.707189042E0,4.763185725E-1,1.811882994E0
9.787556750E0,-8.555119693E-2,-1.821364699E0,6.480372629E-1,1.935107405E0
9.797485750E0,1.240200287E-1,-1.804745450E0,8.234206957E-1,1.987588677E0
9.807414750E0,2.506479156E-1,-1.741697263E0,8.873515204E-1,1.970717243E0
9.817343750E0,3.108713132E-1,-1.782721620E0,7.680177426E-1,1.965855692E0
9.827272750E0,4.003261113E-1,-1.949301485E0,4.112802851E-1,2.032040538E0
9.837200750E0,6.455788010E-1,-2.193438526E0,-1.898240089E-2,2.286548684E0
9.847129750E0,1.128261775E0,-2.387930659E0,-3.044618878E-1,2.658549324E0
9.857058750E0,1.674224487E0,-2.446860068E0,-3.258539262E-1,2.982672058E0
9.866987750E0,2.201053355E0,-2.524967760E0,-1.660223329E-1,3.353753341E0
9.876916750E0,2.464102045E0,-2.567054848E0,2.301043081E-1,3.565742206E0
9.886845750E0,2.170896925E0,-2.304533869E0,7.108477610E-1,3.244838109E0
9.896774750E0,1.366472663E0,-1.693227353E0,1.144007742E0,2.458255504E0
9.906703833E0,4.753148979E-1,-1.083174480E0,1.501212100E0,1.911237551E0
9.916632833E0,-1.008633006E-1,-6.610838628E-1,1.728466183E0,1.853321511E0
9.926561833E0,-2.524184525E-1,-6.419845176E-1,1.597434466E0,1.740016111E0
9.936490833E0,-1.905128109E-1,-9.082649642E-1,1.258398576E0,1.563587974E0
9.946418833E0,-1.244726032E-1,-1.203960999E0,9.805301178E-1,1.557708197E0
9.956347833E0,-1.648183912E-1,-1.014859706E0,7.881900519E-1,1.295511051E0
9.966276833E0,-2.186507821E-1,-8.581268442E-1,5.466637927E-1,1.040687824E0
9.976205833E0,3.053825319E-2,-8.650557947E-1,2.880338430E-1,9.122596163E-1
9.986134833E0,3.554306048E-1,-8.359746677E-1,7.951774746E-2,9.118704031E-1
9.996063833E0,6.167134362E-1,-7.816528648E-1,-1.212399700E-1,1.003003387E0
1.000599283E1,7.935893708E-1,-8.012410372E-1,-2.684313449E-1,1.159235384E0
1.001592183E1,9.263328606E-1,-6.150113118E-1,-3.454654875E-1,1.164335813E0
1.002585083E1,9.184104681E-1,-3.597727472E-1,-5.384037235E-1,1.123740534E0
1.003577983E1,8.686769754E-1,-1.390374327E-1,-8.553295362E-1,1.226996215E0
1.004570783E1,8.482643455E-1,1.627110547E-1,-1.255584604E0,1.523981622E0
1.005563683E1,7.603298235E-1,3.993279916E-1,-1.702374737E0,1.906736487E0
1.006556583E1,6.308613592E-1,5.730785894E-1,-2.080204271E0,2.248033570E0
1.007549483E1,3.913430339E-1,7.944951046E-1,-2.342603921E0,2.504429071E0
1.008542383E1,9.198254943E-2,9.588363630E-1,-2.605992334E0,2.778313159E0
1.009535283E1,-9.445650637E-2,1.037704192E0,-2.843089328E0,3.028020632E0
1.010528183E1,-1.671169317E-1,1.087079251E0,-3.002885545E0,3.197966692E0
1.011521083E1,-1.765268558E-1,1.157907743E0,-3.037974979E0,3.255949024E0
1.012513983E1,-1.934966451E-1,1.283719944E0,-2.993313653E0,3.262714280E0
1.013506883E1,-2.458052516E-1,1.429071200E0,-2.902907806E0,3.244925029E0
1.014499683E1,-3.187328947E-1,1.651270657E0,-2.801327637E0,3.267372334E0
1.015492583E1,-3.138633335E-1,1.922334126E0,-2.652441446E0,3.290793872E0
1.016485483E1,-1.755924708E-1,2.147582906E0,-2.478067535E0,3.283864151E0
1.017478383E1,-1.036179239E-1,2.292721324E0,-2.326878419E0,3.268282564E0
1.018471283E1,-7.519285440E-2,2.363142850E0,-2.224835735E0,3.246535406E0
1.019464183E1,-1.475486398E-1,2.342349567E0,-2.223781190E0,3.233198861E0
1.020457083E1,-3.416411161E-1,2.261321191E0,-2.271263797E0,3.223186531E0
1.021449983E1,-6.303275084E-1,2.162367007E0,-2.308477816E0,3.225246295E0
1.022442883E1,-8.725431544E-1,2.168886652E0,-2.301263229E0,3.280428831E0
1.023435783E1,-9.444487041E-1,2.182527037E0,-2.162935941E0,3.214607208E0
1.024428683E1,-8.853006095E-1,2.126621808E0,-1.935139529E0,3.008495052E0
1.025421483E1,-8.381656194E-1,2.052793109E0,-1.749794779E0,2.824581902E0
1.026414383E1,-8.071356153E-1,2.022744268E0,-1.546768634E0,2.671227336E0
1.027407283E1,-6.637390834E-1,1.988276685E0,-1.202650930E0,2.416642921E0
1.028400183E1,-4.091811347E-1,1.931854563E0,-7.615972075E-1,2.116488025E0
1.029393083E1,-6.534848213E-3,1.885607180E0,-2.942330611E-1,1.908436595E0
1.030385983E1,4.868204641E-1,1.857965053E0,1.095508012E-1,1.923806040E0
1.031378883E1,1.034970619E0,1.810887950E0,4.769623509E-1,2.139619694E0
1.032371783E1,1.600044370E0,1.679317412E0,8.369637242E-1,2.465919145E0
1.033364683E1,2.111654105E0,1.607465072E0,1.235279563E0,2.927275630E0
1.034357583E1,2.473168738E0,1.563458342E0,1.571105331E0,3.321044648E0
1.035350383E1,2.724626493E0,1.503186997E0,1.896443532E0,3.644126609E0
1.036343283E1,3.095472697E0,1.362149817E0,2.230665409E0,4.051329598E0
1.037336183E1,3.497216758E0,1.110616048E0,2.604226768E0,4.499554435E0
1.038329083E1,3.658216333E0,8.933586574E-1,2.791834974E0,4.687747748E0
1.039321983E1,3.544285090E0,7.843560326E-1,2.928807170E0,4.664234409E0
1.040314883E1,3.443681991E0,7.141678101E-1,3.075167656E0,4.671791672E0
1.041307783E1,3.397235218E0,6.430048567E-1,3.150264031E0,4.677480715E0
1.042300683E1,3.357736107E0,6.500004655E-1,3.187898465E0,4.675423937E0
1.043293583E1,3.226879513E0,6.945644349E-1,3.191906147E0,4.591670284E0
1.044286483E1,3.172444274E0,5.750040776E-1,3.126329039E0,4.490987155E0
1.045279383E1,3.287270726E0,1.183803892E-1,2.987147180E0,4.443333323E0
1.046272183E1,3.356505268E0,-3.099380976E-1,2.879621562E0,4.433329401E0
1.047265083E1,3.377488586E0,-6.536362642E-1,2.907966524E0,4.504546461E0
1.048257983E1,3.500522774E0,-8.541261792E-1,3.278807466E0,4.871731686E0
1.049250883E1,3.487786369E0,-7.168201071E-1,3.663166001E0,5.108548715E0
1.050243783E1,3.177889202E0,-4.197616714E-1,3.935880724E0,5.076055231E0
1.051236683E1,2.530279663E0,3.062771559E-1,4.055992473E0,4.790323143E0
1.052229583E1,1.674563041E0,1.154820998E0,3.823883740E0,4.331265378E0
1.053222483E1,9.178532284E-1,1.695560977E0,3.186598337E0,3.724485271E0
1.054215383E1,4.232647383E-1,1.764871532E0,2.286209865E0,2.919020402E0
1.055208283E1,1.682670790E-1,1.449764496E0,1.497507889E0,2.091090811E0
1.056201083E1,4.702096939E-2,1.087503759E0,9.371309137E-1,1.436345970E0
1.057193983E1,-1.986228991E-1,8.927920622E-1,6.019859080E-1,1.094950116E0
1.058186883E1,-4.650278914E-1,9.802319098E-1,4.658201891E-1,1.180717572E0
1.059179783E1,-5.772722125E-1,1.208125970E0,5.429417476E-1,1.444852002E0
1.060172683E1,-3.562995011E-1,1.339849121E0,7.136560325E-1,1.559310724E0
1.061165583E1,-3.686961830E-2,1.403501326E0,9.328007582E-1,1.685613418E0
1.062158483E1,3.402114719E-1,1.435131254E0,1.129647565E0,1.857807629E0
1.063151383E1,6.203568363E-1,1.371087871E0,1.236219503E0,1.947553135E0
1.064144283E1,8.033863807E-1,1.394805931E0,1.318432378E0,2.080667489E0
1.065137183E1,9.599116659E-1,1.566790085E0,1.395855507E0,2.307525552E0
1.066130083E1,1.041736432E0,1.720816855E0,1.426203725E0,2.465863441E0
1.067122883E1,1.135992379E0,1.775853773E0,1.463594331E0,2.566367798E0
1.068115783E1,1.200098913E0,1.732648696E0,1.528149638E0,2.603372855E0
1.069108683E1,1.100532525E0,1.679254847E0,1.611799613E0,2.574677974E0
1.070101583E1,9.475974298E-1,1.673031070E0,1.700798913E0,2.567039305E0
1.071094483E1,7.436681825E-1,1.524526411E0,1.703050383E0,2.403664650E0
1.072087383E1,5.251413614E-1,1.384803100E0,1.603892423E0,2.183099626E0
1.073080283E1,2.561431289E-1,1.253192216E0,1.424441082E0,1.914453559E0
1.074073183E1,-1.466832519E-2,1.084804684E0,1.196591753E0,1.615192925E0
1.075066083E1,-3.438127720E-1,8.890475053E-1,9.006027728E-1,1.311372580E0
1.076058983E1,-6.604079247E-1,6.643471938E-1,5.954333720E-1,1.109971496E0
1.077051783E1,-1.035269412E0,4.517956424E-1,2.823386550E-1,1.164309741E0
1.078044683E1,-1.397004485E0,3.317330092E-1,-3.389894038E-2,1.436251182E0
1.079037583E1,-1.668568475E0,2.041496873E-1,-2.737929493E-1,1.703161892E0
1.080030483E1,-1.871503111E0,5.530355036E-2,-3.987131569E-1,1.914302630E0
1.081023383E1,-2.001739315E0,2.555174768E-2,-3.880671313E-1,2.039168771E0
1.082016283E1,-2.064468244E0,-2.586983621E-2,-4.030447742E-1,2.103602498E0
1.083009183E1,-2.073340809E0,-1.396975833E-1,-4.060362098E-1,2.117338643E0
1.084002083E1,-2.052286155E0,-2.844120777E-1,-3.570970613E-1,2.102447860E0
1.084994983E1,-2.087658886E0,-4.472576183E-1,-3.078415784E-1,2.157110438E0
1.085987883E1,-2.165566603E0,-6.211678451E-1,-2.855426368E-1,2.270916731E0
1.086980783E1,-2.254205130E0,-8.316611767E-1,-2.360053182E-1,2.414290701E0
1.087973683E1,-2.327593533E0,-9.898488253E-1,-1.105857584E-1,2.531742792E0
1.088966483E1,-2.322788876E0,-1.226890270E0,-4.271800339E-2,2.627248128E0
1.089959383E1,-2.233918800E0,-1.398448747E0,6.331598997E-2,2.636296838E0
1.090952363E1,-2.209690862E0,-1.486901332E0,1.829640555E-1,2.669660113E0
1.091945263E1,-2.161060739E0,-1.642222676E0,2.981477720E-1,2.730562383E0
1.092938162E1,-2.206735094E0,-1.733557354E0,4.085736090E-1,2.835812629E0
1.093931062E1,-2.242552214E0,-1.761507629E0,5.651073727E-1,2.907111264E0
1.094923963E1,-2.141058583E0,-1.886370826E0,6.505585822E-1,2.926730808E0
1.095916863E1,-2.015773802E0,-2.142066059E0,6.627345318E-1,3.015129861E0
1.096909762E1,-1.861214935E0,-2.443866586E0,7.223828557E-1,3.155699909E0
1.097902662E1,-1.731628942E0,-2.678285555E0,7.729095232E-1,3.281637005E0
1.098895463E1,-1.682083730E0,-2.762141936E0,8.287428313E-1,3.338509911E0
1.099888362E1,-1.720971807E0,-2.848802935E0,8.248906857E-1,3.428974593E0
1.100881262E1,-1.628368868E0,-2.914399339E0,8.025005275E-1,3.433557306E0
1.101874163E1,-1.527879204E0,-2.970998632E0,7.969626296E-1,3.434588355E0
1.102867063E1,-1.402855209E0,-3.096354750E0,8.030472422E-1,3.492892833E0
1.103859962E1,-1.387508606E0,-3.114851539E0,7.984624404E-1,3.502145416E0
1.104852862E1,-1.546534746E0,-3.257668027E0,5.442997634E-1,3.646975861E0
1.105845763E1,-1.473796552E0,-3.323942416E0,1.768475756E-1,3.640322036E0
1.106838663E1,-1.238480621E0,-3.540867392E0,-2.929954979E-1,3.762635048E0
1.107831562E1,-6.975693190E-1,-3.943261664E0,-7.386319757E-1,4.072037905E0
1.108824462E1,-1.429854727E-1,-4.107649115E0,-1.045858719E0,4.241113835E0
1.109817263E1,3.403143829E-1,-4.195505577E0,-1.303516569E0,4.406499333E0
1.110810162E1,4.820181459E-1,-3.993826046E0,-1.278618833E0,4.221120005E0
1.111803063E1,1.009931087E-1,-3.286639227E0,-8.081974697E-1,3.386056728E0
1.112795963E1,-5.303161472E-1,-2.246736481E0,-1.166569224E-1,2.311421396E0
1.113788863E1,-9.330641752E-1,-1.532737656E0,4.324928141E-1,1.845790755E0
1.114781762E1,-9.665201890E-1,-1.408098407E0,6.419745773E-1,1.824563991E0
1.115774663E1,-7.518922913E-1,-1.558413949E0,4.885360372E-1,1.797960932E0
1.116767563E1,-4.906579918E-1,-1.556954484E0,2.208569366E-1,1.647310024E0
1.117760463E1,-2.910936910E-1,-1.305560464E0,-1.645523429E-2,1.337719865E0
1.118753362E1,4.225022614E-2,-1.011739631E0,-2.615962422E-1,1.045865554E0
1.119746263E1,4.690016592E-1,-8.343508959E-1,-5.074099723E-1,1.083313830E0
1.120739063E1,8.031016213E-1,-7.133088541E-1,-7.217422932E-1,1.294099561E0
1.121731962E1,9.715335917E-1,-4.970647860E-1,-9.121247113E-1,1.422294769E0
1.122724863E1,1.061224617E0,-3.481537449E-1,-1.034760119E0,1.522543012E0
1.123717763E1,1.174161249E0,-2.692391378E-1,-1.140547945E0,1.658913490E0
1.124710663E1,1.287159276E0,-1.858443940E-1,-1.185814165E0,1.759963742E0
1.125703562E1,1.237431630E0,-5.080294847E-2,-1.208782028E0,1.730598732E0
1.126696463E1,1.013920058E0,1.297210640E-1,-1.298274541E0,1.652385615E0
1.127689363E1,6.730431730E-1,3.054065055E-1,-1.412608657E0,1.594278352E0
1.128682262E1,2.360819167E-1,4.675872177E-1,-1.507015462E0,1.595452312E0
1.129675162E1,-1.751755643E-1,5.885620165E-1,-1.546325415E0,1.663795064E0
1.130668063E1,-5.309646034E-1,6.171946621E-1,-1.520992061E0,1.725186805E0
1.131660862E1,-8.330387807E-1,6.435047936E-1,-1.378300703E0,1.734290881E0
1.132653762E1,-9.615009391E-1,7.019716877E-1,-1.120891652E0,1.635128864E0
1.133646663E1,-9.157084697E-1,7.318620694E-1,-8.540902188E-1,1.450384153E0
1.134639563E1,-8.213601369E-1,7.290676850E-1,-6.614496061E-1,1.282063862E0
1.135632462E1,-7.565349805E-1,7.043643683E-1,-6.100212979E-1,1.200250109E0
1.136625362E1,-7.157284319E-1,6.948363304E-1,-5.809121042E-1,1.154349855E0
1.137618263E1,-6.887540567E-1,7.303043711E-1,-5.442436302E-1,1.141896560E0
1.138611163E1,-7.468853205E-1,8.141815102E-1,-5.152969891E-1,1.219122718E0
1.139604062E1,-8.389725351E-1,9.233788472E-1,-5.957590619E-1,1.382545576E0
1.140596962E1,-9.379547864E-1,9.930139232E-1,-6.847080758E-1,1.527959745E0
1.141589863E1,-1.030656543E0,1.087986154E0,-7.210526142E-1,1.663094602E0
1.142582662E1,-1.040204462E0,1.279571929E0,-7.067114407E-1,1.794093282E0
1.143575562E1,-9.594859886E-1,1.522188694E0,-5.995790479E-1,1.896619840E0
1.144568463E1,-7.082475042E-1,1.721115063E0,-4.245093182E-1,1.908942050E0
1.145561363E1,-4.767404491E-1,1.905109983E0,-2.125790334E-1,1.975326644E0
1.146554262E1,-3.476584858E-1,2.061793728E0,2.729392558E-2,2.091077415E0
1.147547163E1,-2.432698989E-1,2.175650711E0,2.543521267E-1,2.203935404E0
1.148540063E1,-1.131681812E-1,2.217631965E0,5.109715113E-1,2.278550078E0
1.149532963E1,1.446045667E-1,2.260607831E0,7.403912567E-1,2.383157036E0
1.150525862E1,4.952895713E-1,2.334101484E0,1.002218318E0,2.588007545E0
1.151518763E1,7.341740584E-1,2.388017491E0,1.271324431E0,2.803195479E0
1.152511663E1,9.752693778E-1,2.420016378E0,1.530641721E0,3.024978299E0
1.153504462E1,1.295852916E0,2.371717207E0,1.760802747E0,3.225632280E0
1.154497363E1,1.596730168E0,2.318662496E0,1.981729266E0,3.442817725E0
1.155490263E1,1.901212814E0,2.203914982E0,2.070781483E0,3.572112451E0
1.156483163E1,2.191056370E0,2.095970119E0,1.992135555E0,3.628005351E0
1.157476062E1,2.397126283E0,2.103585532E0,1.813500340E0,3.668796804E0
1.158468963E1,2.550004075E0,1.914334550E0,1.501825619E0,3.524581925E0
1.159461863E1,2.583051953E0,1.670206865E0,1.131603459E0,3.277540962E0
1.160454763E1,2.285671336E0,1.441545650E0,8.625628343E-1,2.836610999E0
1.161447662E1,1.968552858E0,1.202906746E0,7.725996208E-1,2.432919063E0
1.162440563E1,1.810688560E0,9.118639255E-1,8.295164180E-1,2.190476288E0
1.163433463E1,1.701641496E0,6.578386581E-1,1.085463665E0,2.122867601E0
1.164426262E1,1.592866328E0,5.808758515E-1,1.456263384E0,2.235026384E0
1.165419163E1,1.553764243E0,5.027751768E-1,1.843994300E0,2.463185170E0
1.166412063E1,1.686145790E0,1.013983208E-1,2.061707189E0,2.665334084E0
1.167404962E1,1.945649314E0,-7.201196909E-1,2.089879074E0,2.944778118E0
1.168397862E1,2.280445095E0,-1.718507790E0,2.147105043E0,3.572640329E0
1.169390763E1,2.737716655E0,-2.530525246E0,2.482378103E0,4.478934197E0
1.170383663E1,2.976945543E0,-2.893625059E0,3.123037056E0,5.195058344E0
1.171376562E1,2.837755498E0,-2.612843517E0,3.844158375E0,5.445857244E0
1.172369462E1,2.461190717E0,-1.849712293E0,4.471428375E0,5.428864248E0
1.173362363E1,1.771657811E0,-1.137957044E0,4.724499376E0,5.172486055E0
1.174355263E1,7.465906209E-1,-7.592264539E-1,4.349185315E0,4.477637241E0
1.175348062E1,-2.396738613E-1,-7.400703907E-1,3.461403147E0,3.547740054E0
1.176340963E1,-9.579031473E-1,-7.605777454E-1,2.538467519E0,2.817778254E0
1.177333863E1,-1.557025235E0,-4.641858923E-1,1.919673205E0,2.514943605E0
1.178326762E1,-1.883209237E0,-2.126246417E-1,1.566783653E0,2.458962644E0
1.179319662E1,-1.648286238E0,-6.255877554E-2,1.359293890E0,2.137391168E0
1.180312563E1,-1.327065938E0,1.210198224E-2,1.217235786E0,1.800809102E0
1.181305463E1,-1.160029113E0,6.252252281E-2,1.112312179E0,1.608357856E0
1.182298362E1,-9.620739663E-1,5.930947781E-2,1.101380956E0,1.463606484E0
1.183291263E1,-6.204386973E-1,-8.387538493E-2,1.271428512E0,1.417219008E0
1.184284163E1,-5.945554125E-1,-3.335953474E-1,1.388108823E0,1.546488959E0
1.185277063E1,-1.014094305E0,-5.215599418E-1,1.226073414E0,1.674415734E0
1.186269863E1,-1.416338888E0,-7.392780930E-1,9.098165229E-1,1.838563039E0
1.187262763E1,-1.750028375E0,-8.067970616E-1,7.761406946E-1,2.077478084E0
1.188255663E1,-2.136984828E0,-8.489671808E-1,7.939472204E-1,2.432653206E0
1.189248562E1,-2.380331326E0,-9.002496010E-1,9.301905611E-1,2.709553661E0
1.190241446E1,-2.611494564E0,-8.570445246E-1,1.098214981E0,2.959815082E0
1.191234346E1,-2.675057892E0,-7.772393864E-1,1.281260459E0,3.066213324E0
1.192227246E1,-2.577160299E0,-7.064465618E-1,1.470872360E0,3.050293010E0
1.193220146E1,-2.288185639E0,-6.758241087E-1,1.629892360E0,2.889477608E0
1.194213046E1,-1.972092762E0,-6.289382100E-1,1.600519164E0,2.616557802E0
1.195205946E1,-1.978350452E0,-5.072044426E-1,1.303482802E0,2.422848380E0
1.196198846E1,-2.127628698E0,-3.902800101E-1,8.172932522E-1,2.312377699E0
1.197191646E1,-2.351614480E0,-2.840337628E-1,2.407851246E-1,2.380912287E0
1.198184546E1,-2.696154061E0,-9.282162488E-2,-3.575209844E-1,2.721338610E0
1.199177446E1,-2.897202385E0,1.292930478E-1,-7.237316622E-1,2.989027580E0
1.200170346E1,-2.927313792E0,3.919295096E-1,-7.969323702E-1,3.059064559E0
1.201163246E1,-2.735399988E0,5.917200977E-1,-7.007329550E-1,2.885060214E0
1.202156146E1,-2.422222533E0,6.274419075E-1,-4.579154845E-1,2.543724029E0
1.203149046E1,-2.113395406E0,5.838690412E-1,-7.102320492E-2,2.193715454E0
1.204141946E1,-1.864482944E0,5.424280697E-1,2.041847706E-1,1.952489764E0
1.205134846E1,-1.668430481E0,3.802841949E-1,2.678165102E-1,1.732051391E0
1.206127746E1,-1.310328868E0,1.184084558E-1,2.463956742E-1,1.338541420E0
1.207120646E1,-9.906393689E-1,-8.851164222E-2,2.342311268E-1,1.021794936E0
1.208113446E1,-8.773589212E-1,-1.597506094E-1,1.972987971E-1,9.133486460E-1
1.209106346E1,-8.513475823E-1,-1.673011190E-1,1.224404034E-1,8.762271525E-1
1.210099246E1,-8.705989552E-1,-2.354685438E-1,9.463835478E-2,9.068320649E-1
1.211092146E1,-1.036286243E0,-3.775623161E-1,7.925067589E-2,1.105768126E0
1.212085046E1,-1.098334556E0,-5.975240439E-1,1.427428132E-1,1.258471013E0
1.213077946E1,-1.118436699E0,-9.146097779E-1,3.431678241E-1,1.484983451E0
1.214070846E1,-1.063233136E0,-1.278857399E0,5.736269121E-1,1.759258021E0
1.215063746E1,-8.661357754E-1,-1.694586246E0,7.850772867E-1,2.058679206E0
1.216056646E1,-6.085957468E-1,-2.062876047E0,1.073623053E0,2.403853746E0
1.217049546E1,-2.802137768E-1,-2.295492319E0,1.390540241E0,2.698408218E0
1.218042446E1,-1.902391613E-2,-2.528224951E0,1.660490401E0,3.024815975E0
1.219035346E1,1.024291849E-1,-2.849194990E0,1.944419060E0,3.450966431E0
1.220028146E1,1.618287098E-1,-3.213878229E0,2.238833092E0,3.920149923E0
1.221021046E1,2.688900590E-2,-3.534644201E0,2.491562324E0,4.324617377E0
1.222013946E1,-2.788496214E-1,-3.790331832E0,2.577338054E0,4.592063147E0
1.223006846E1,-7.550778544E-1,-3.902660353E0,2.443102940E0,4.665796006E0
1.223999746E1,-1.294200493E0,-3.891491001E0,2.030787405E0,4.576325449E0
1.224992646E1,-1.625723587E0,-3.722238082E0,1.381820435E0,4.290391734E0
1.225985546E1,-1.694554086E0,-3.579895218E0,7.411243513E-1,4.029445201E0
1.226978446E1,-1.532333613E0,-3.405995516E0,3.291365531E-1,3.749290950E0
1.227971346E1,-1.085711002E0,-3.179628164E0,6.906994253E-2,3.360591361E0
1.228964246E1,-4.862018287E-1,-3.075887448E0,-1.634220761E-1,3.118362164E0
1.229957146E1,2.049706364E-1,-3.058549869E0,-2.095425743E-1,3.072563808E0
1.230950046E1,6.872098070E-1,-2.958217496E0,8.352747560E-4,3.036990084E0
1.231942846E1,6.319442636E-1,-2.488394887E0,3.992075390E-1,2.598235811E0
1.232935746E1,1.617749155E-1,-1.765262126E0,6.227489322E-1,1.878866076E0
1.233928646E1,-5.682692546E-1,-1.092421852E0,4.100316122E-1,1.297860305E0
1.234921546E1,-1.188497452E0,-7.034346610E-1,-1.278680813E-1,1.386973959E0
1.235914446E1,-1.448767546E0,-5.781890559E-1,-6.730180299E-1,1.698877057E0
1.236907346E1,-1.526793961E0,-5.105432028E-1,-1.180785852E0,1.996499283E0
1.237900246E1,-1.456132114E0,-4.572698057E-1,-1.566883349E0,2.187359101E0
1.238893146E1,-1.314007936E0,-3.760104650E-1,-1.792737316E0,2.254308721E0
1.239886046E1,-1.062064862E0,-2.819205791E-1,-1.877395350E0,2.175333144E0
1.240878946E1,-7.375987726E-1,-2.645485014E-1,-1.906366550E0,2.061133494E0
1.241871846E1,-3.109964436E-1,-3.282621020E-1,-1.901221292E0,1.954256175E0
1.242864646E1,1.061678946E-1,-4.094840205E-1,-1.904962341E0,1.951366266E0
1.243857546E1,4.429610842E-1,-5.016185975E-1,-2.023271102E0,2.131070550E0
1.244850446E1,7.198314232E-1,-5.818575990E-1,-2.193356665E0,2.380657263E0
1.245843346E1,8.132108724E-1,-5.329128957E-1,-2.372906531E0,2.564369997E0
1.246836246E1,8.769905466E-1,-4.175449920E-1,-2.519136624E0,2.699908437E0
1.247829146E1,8.920190603E-1,-2.921128607E-1,-2.592294939E0,2.756994918E0
1.248822046E1,9.062593693E-1,-2.400018901E-1,-2.576416533E0,2.741683626E0
1.249814946E1,9.160721666E-1,-3.172272366E-1,-2.522732369E0,2.702591338E0
1.250807846E1,8.567129874E-1,-4.868064308E-1,-2.355874177E0,2.553640691E0
1.251800746E1,6.708048588E-1,-7.120288986E-1,-2.131143752E0,2.344938806E0
1.252793646E1,3.965265906E-1,-8.243147349E-1,-1.927860330E0,2.133863531E0
1.253786546E1,5.264423668E-2,-9.626522559E-1,-1.893646224E0,2.124939247E0
1.254779346E1,-2.670207042E-1,-8.116432339E-1,-1.708708734E0,1.910431975E0
1.255772246E1,-6.172888023E-1,-6.198645008E-1,-1.523402283E0,1.756710557E0
1.256765146E1,-8.366798419E-1,-4.530282354E-1,-1.393068431E0,1.686981741E0
1.257758046E1,-1.100245426E0,-2.084006131E-1,-1.300534782E0,1.716205562E0
1.258750946E1,-1.346272872E0,1.660726190E-2,-1.177296526E0,1.788505957E0
1.259743846E1,-1.524467939E0,2.388581747E-1,-1.069555438E0,1.877499549E0
1.260736746E1,-1.535573555E0,4.502718580E-1,-1.019533385E0,1.897413822E0
1.261729646E1,-1.529036953E0,5.643486965E-1,-1.087676836E0,1.959460220E0
1.262722546E1,-1.646220417E0,6.129630321E-1,-1.274122324E0,2.170058303E0
1.263715446E1,-1.776731440E0,6.982873571E-1,-1.509960997E0,2.434001243E0
1.264708346E1,-1.837564702E0,8.105913198E-1,-1.714685465E0,2.640804530E0
1.265701246E1,-1.880485019E0,9.165066147E-1,-1.885366567E0,2.816170338E0
1.266694046E1,-1.840074912E0,9.739420599E-1,-2.084073958E0,2.945811107E0
1.267686946E1,-1.637905676E0,9.468893319E-1,-2.219641069E0,2.916528910E0
1.268679846E1,-1.312885271E0,7.982250434E-1,-2.159196939E0,2.650087239E0
1.269672746E1,-8.798597753E-1,6.067562127E-1,-1.966585270E0,2.238250198E0
1.270665646E1,-5.158565676E-1,4.641987562E-1,-1.771356679E0,1.902443946E0
1.271658546E1,-2.757932818E-1,4.383926547E-1,-1.520296535E0,1.606098256E0
1.272651446E1,-6.026900589E-2,4.285225546E-1,-1.234485803E0,1.308135747E0
1.273644346E1,1.516843754E-1,4.125064462E-1,-9.695300433E-1,1.064499048E0
1.274637246E1,3.141469234E-1,4.362467265E-1,-7.941340390E-1,9.589829862E-1
1.275630146E1,3.822003275E-1,4.864702159E-1,-5.685820806E-1,8.402475491E-1
1.276623046E1,4.314327139E-1,5.219476122E-1,-2.176704964E-1,7.112973650E-1
1.277615846E1,5.294992912E-1,5.891268575E-1,1.635460371E-1,8.088184344E-1
1.278608746E1,7.236297745E-1,6.805966061E-1,4.911982745E-1,1.108209157E0
1.279601646E1,9.539872670E-1,7.142935252E-1,8.187435079E-1,1.445907285E0
1.280594546E1,1.191863694E0,6.839605093E-1,1.118090836E0,1.771572229E0
1.281587446E1,1.493880569E0,5.754373562E-1,1.467186860E0,2.171507446E0
1.282580346E1,1.878836104E0,5.848028415E-1,1.798191160E0,2.665616424E0
1.283573246E1,2.200796662E0,5.681727755E-1,2.190146690E0,3.156432919E0
1.284566146E1,2.381968546E0,5.127709919E-1,2.425364534E0,3.437891995E0
1.285559046E1,2.339471567E0,5.654824716E-1,2.634525870E0,3.568420407E0
1.286551946E1,2.097472853E0,6.665018928E-1,2.659228017E0,3.451827167E0
1.287544846E1,1.876511251E0,6.905666935E-1,2.440045284E0,3.154678720E0
1.288537746E1,1.860083499E0,3.985614216E-1,1.984807971E0,2.749222529E0
1.289530546E1,2.124671761E0,-2.272274780E-1,1.540824209E0,2.634388290E0
1.290523446E1,2.429374262E0,-9.668224901E-1,1.220720873E0,2.885613363E0
1.291516346E1,2.664338191E0,-1.626070327E0,1.102265932E0,3.310255714E0
1.292509246E1,2.855012385E0,-2.133465974E0,1.210384019E0,3.764014114E0
1.293502146E1,2.820536617E0,-2.354843313E0,1.591124881E0,4.004046981E0
1.294495046E1,2.234383653E0,-2.003257837E0,2.151984398E0,3.692769844E0
1.295487946E1,1.298850199E0,-1.081244899E0,2.531723048E0,3.043965171E0
1.296480846E1,4.493994534E-1,-1.437877107E-1,2.452120223E0,2.497103995E0
1.297473746E1,-6.315402210E-2,4.628199828E-1,1.943748384E0,1.999086929E0
1.298466646E1,-1.640296018E-1,7.505848539E-1,1.360315545E0,1.562287335E0
1.299459546E1,-1.733600038E-1,8.638027364E-1,8.836402926E-1,1.247809691E0
1.300452446E1,-2.834905565E-1,9.884682977E-1,5.122017655E-1,1.148819881E0
1.301445246E1,-4.116662014E-1,1.132827281E0,2.081927446E-1,1.223156135E0
1.302438146E1,-4.905474794E-1,1.276160663E0,-2.413759857E-2,1.367408312E0
1.303431046E1,-4.210205770E-1,1.389960344E0,-2.227321386E-1,1.469305172E0
1.304423946E1,-2.075358099E-1,1.406236653E0,-3.149737197E-1,1.455946799E0
1.305416846E1,9.193752587E-2,1.349601107E0,-2.966532236E-1,1.384875010E0
1.306409746E1,3.332445145E-1,1.276571723E0,-1.331688747E-1,1.326054757E0
1.307402646E1,4.812451440E-1,1.217845212E0,1.795472351E-1,1.321734111E0
1.308395546E1,6.415828139E-1,1.101397913E0,4.839956743E-1,1.363435984E0
1.309388446E1,7.578453416E-1,9.389324409E-1,6.957520044E-1,1.392836868E0
1.310381346E1,7.668073690E-1,7.643468606E-1,8.646374264E-1,1.385574806E0
1.311374246E1,6.167315626E-1,5.963674647E-1,9.871015111E-1,1.307815494E0
1.312367146E1,4.246019965E-1,4.573785639E-1,1.117667205E0,1.280102335E0
1.313359946E1,4.148190200E-1,2.800623339E-1,1.331838436E0,1.422780148E0
1.314352846E1,6.514593458E-1,3.149544239E-2,1.673319923E0,1.795937306E0
1.315345746E1,1.014922271E0,-3.187919515E-1,1.957364795E0,2.227772983E0
1.316338646E1,8.135751539E-1,-7.282940984E-1,1.870706720E0,2.166070280E0
1.317331546E1,5.687937498E-2,-1.025553678E0,1.445869373E0,1.773565295E0
1.318324446E1,-6.377289140E-1,-1.202548311E0,8.356782138E-1,1.597240961E0
1.319317346E1,-1.405713912E0,-1.152376277E0,2.959731925E-1,1.841630478E0
1.320310246E1,-1.993811075E0,-1.030171224E0,-3.636491588E-1,2.273494241E0
1.321303146E1,-2.480536230E0,-8.802907151E-1,-7.839429268E-1,2.746368191E0
1.322296046E1,-2.732479888E0,-7.035311401E-1,-9.649227297E-1,2.982025868E0
1.323288946E1,-2.702759076E0,-5.289057988E-1,-9.939418763E-1,2.927894878E0
1.324281846E1,-2.600706452E0,-4.635865527E-1,-9.334296262E-1,2.801763267E0
1.325274646E1,-2.466336266E0,-5.093053472E-1,-9.388239750E-1,2.687675012E0
1.326267546E1,-2.383428011E0,-6.491988122E-1,-1.071463969E0,2.692623854E0
1.327260446E1,-2.429989974E0,-7.736632293E-1,-1.301145816E0,2.862933199E0
1.328253346E1,-2.532357763E0,-8.416610849E-1,-1.551874423E0,3.086995861E0
1.329246246E1,-2.613583190E0,-8.734617519E-1,-1.733166760E0,3.255398522E0
1.330239146E1,-2.669154543E0,-8.954893827E-1,-1.872609404E0,3.381265028E0
1.331232046E1,-2.661468962E0,-9.309641477E-1,-1.997914651E0,3.455687231E0
1.332224946E1,-2.574061275E0,-9.911042225E-1,-2.016408225E0,3.416720819E0
1.333217846E1,-2.548769143E0,-1.097827310E0,-1.997973123E0,3.419553414E0
1.334210746E1,-2.565193387E0,-1.215270098E0,-1.951500623E0,3.444626715E0
1.335203646E1,-2.475677778E0,-1.368522112E0,-1.815820954E0,3.361404315E0
1.336196546E1,-2.299040995E0,-1.557502953E0,-1.660222744E0,3.235389390E0
1.337189346E1,-2.146056783E0,-1.789697641E0,-1.483991173E0,3.163985961E0
1.338182246E1,-2.007311711E0,-2.103666809E0,-1.264054588E0,3.170575397E0
1.339175146E1,-1.802450418E0,-2.404433256E0,-9.818626982E-1,3.161357485E0
1.340168046E1,-1.475244323E0,-2.597330854E0,-5.908289820E-1,3.044922374E0
1.341160946E1,-1.159763065E0,-2.788898795E0,-1.250798365E-1,3.023020314E0
1.342153846E1,-9.157248420E-1,-2.949796043E0,2.612264058E-1,3.099691584E0
1.343146746E1,-6.581432980E-1,-3.052003326E0,5.948118129E-1,3.178313704E0
1.344139646E1,-4.882436764E-1,-3.100156901E0,9.415935087E-1,3.276576420E0
1.345132546E1,-4.346697325E-1,-3.080524583E0,1.133254420E0,3.311017225E0
1.346125446E1,-6.305613971E-1,-2.995246743E0,1.104853032E0,3.254198972E0
1.347118346E1,-9.175421566E-1,-2.904818968E0,8.603464472E-1,3.165446707E0
1.348111246E1,-1.261354344E0,-2.772333048E0,5.338300315E-1,3.092219238E0
1.349104046E1,-1.597407861E0,-2.455766839E0,1.487797710E-1,2.933366336E0
1.350096946E1,-1.685687953E0,-2.117489626E0,-3.401930532E-1,2.727826517E0
1.351089846E1,-1.374437156E0,-2.037577192E0,-8.195945701E-1,2.590855760E0
1.352082746E1,-7.563005072E-1,-2.288127751E0,-1.175224273E0,2.681169736E0
1.353075646E1,-9.611828506E-2,-2.617280384E0,-1.440903625E0,2.989247162E0
1.354068546E1,4.937611091E-1,-2.878215014E0,-1.662556953E0,3.360359701E0
1.355061446E1,1.088029423E0,-3.103448299E0,-1.872388964E0,3.784314972E0
1.356054346E1,1.489163035E0,-3.267596015E0,-1.908259293E0,4.066478057E0
1.357047246E1,1.373933126E0,-3.149952082E0,-1.678589726E0,3.824598518E0
1.358040146E1,9.111207443E-1,-2.590886053E0,-1.187145868E0,2.992013847E0
1.359033046E1,2.336290097E-1,-1.820676774E0,-8.180196226E-1,2.009627461E0
1.360025946E1,-5.038879019E-1,-1.040510271E0,-7.569296676E-1,1.381849183E0
1.361018746E1,-1.011466566E0,-4.935400844E-1,-9.514700407E-1,1.473750884E0
1.362011646E1,-1.123909108E0,-2.009641242E-1,-1.377948409E0,1.789497158E0
1.363004546E1,-1.038238628E0,-3.890211046E-2,-1.739780545E0,2.026398077E0
1.363997446E1,-8.888089389E-1,-2.286261320E-3,-1.878887560E0,2.078510288E0
1.364990346E1,-6.837652123E-1,-1.802053392E-2,-1.765969639E0,1.893807903E0
1.365983246E1,-2.816241252E-1,-8.794563174E-2,-1.371381401E0,1.402759255E0
1.366976146E1,2.969999635E-1,-1.640898281E-1,-7.132573986E-1,7.898547757E-1
1.367969046E1,8.820279229E-1,-1.777623725E-1,-2.666418046E-2,9.001575953E-1
1.368961946E1,1.375252258E0,-1.523000872E-1,5.698737305E-1,1.496419112E0
1.369954846E1,1.671168147E0,-1.150018680E-1,9.977829123E-1,1.949768998E0
1.370947746E1,1.779824032E0,6.410828769E-2,1.285260100E0,2.196309856E0
1.371940646E1,1.880314865E0,3.930299556E-1,1.388034856E0,2.369957236E0
1.372933446E1,2.165962459E0,8.565293849E-1,1.366165100E0,2.700267217E0
1.373926346E1,2.225460802E0,1.025418023E0,1.208307819E0,2.732062534E0
1.374919246E1,2.210581393E0,1.260793011E0,9.314006424E-1,2.709940270E0
1.375912146E1,2.242013685E0,1.403519452E0,5.420824993E-1,2.700064009E0
1.376905046E1,2.172968593E0,1.480547163E0,2.816787967E-1,2.644457478E0
1.377897946E1,2.002923376E0,1.553453756E0,-7.439938724E-2,2.535834358E0
1.378890846E1,1.844396589E0,1.591252497E0,-4.017683271E-1,2.468866354E0
1.379883746E1,1.717713153E0,1.555331882E0,-6.772309488E-1,2.414174289E0
1.380876646E1,1.538353906E0,1.488152636E0,-9.789469841E-1,2.353607488E0
1.381869546E1,1.274842116E0,1.414142089E0,-1.193057111E0,2.246865714E0
1.382862446E1,9.462601715E-1,1.348924584E0,-1.336601577E0,2.121676135E0
1.383855346E1,5.607438880E-1,1.341075282E0,-1.463405465E0,2.062637190E0
1.384848246E1,2.956024790E-1,1.389389656E0,-1.567556655E0,2.115423908E0
1.385841046E1,1.426732314E-1,1.407509592E0,-1.591592220E0,2.129461129E0
1.386833946E1,-3.361856639E-2,1.434709670E0,-1.510032917E0,2.083199812E0
1.387826846E1,-1.531871098E-1,1.489778747E0,-1.372407002E0,2.031356194E0
1.388819746E1,-1.442239130E-1,1.530791702E0,-1.142075238E0,1.915322328E0
1.389812646E1,-7.103548408E-2,1.561622901E0,-7.904587716E-1,1.751724063E0
1.390805496E1,8.376779616E-2,1.590570127E0,-4.141500986E-1,1.645737122E0
1.391798396E1,2.911340368E-1,1.624030234E0,-6.678455830E-2,1.651270240E0
1.392791296E1,5.441541678E-1,1.661471710E0,2.272716245E-1,1.763021381E0
1.393784196E1,7.112675911E-1,1.661281090E0,4.334780699E-1,1.858402455E0
1.394777096E1,7.883040726E-1,1.647450086E0,5.210252139E-1,1.899205721E0
1.395769996E1,8.298900551E-1,1.615153576E0,5.414846215E-1,1.894899515E0
1.396762896E1,7.811201835E-1,1.579542278E0,5.071214122E-1,1.833650642E0
1.397755696E1,7.227842671E-1,1.554757100E0,4.510208863E-1,1.772880870E0
1.398748596E1,6.354075694E-1,1.480738952E0,3.621280056E-1,1.651504561E0
1.399741496E1,5.087615561E-1,1.340954829E0,2.852277642E-1,1.462310861E0
1.400734396E1,3.596674973E-1,1.154366085E0,2.626908410E-1,1.237306851E0
1.401727296E1,2.211346793E-1,9.873386157E-1,3.040745097E-1,1.056503382E0
1.402720196E1,1.281510866E-1,8.332557124E-1,4.235187998E-1,9.434542687E-1
1.403713096E1,9.704389930E-2,6.906082088E-1,5.791000521E-1,9.064844658E-1
1.404705996E1,9.746197522E-2,5.428888303E-1,7.459021112E-1,9.276837167E-1
1.405698896E1,5.476151347E-2,3.701427841E-1,9.357974562E-1,1.007830037E0
1.406691796E1,-7.486833394E-2,2.018026149E-1,1.140162613E0,1.160301835E0
1.407684696E1,-2.223889071E-1,8.599032283E-2,1.446617525E0,1.466135541E0
1.408677596E1,-2.635024345E-1,-4.466688037E-3,1.814718461E0,1.833754776E0
1.409670396E1,-2.709710830E-1,-8.702469528E-2,2.186517761E0,2.204962255E0
1.410663296E1,-2.390791994E-1,-1.212367541E-1,2.474940737E0,2.489415366E0
1.411656196E1,-2.647894067E-1,-5.624787569E-2,2.720064788E0,2.733501363E0
1.412649096E1,-3.253776705E-1,8.543893039E-2,2.818794439E0,2.838797726E0
1.413641996E1,-2.882876122E-1,1.865407974E-1,2.812503127E0,2.833386853E0
1.414634896E1,-1.652434838E-1,1.308378822E-1,2.674555908E0,2.682847977E0
1.415627796E1,6.516604900E-2,-1.031688577E-1,2.406541177E0,2.409632932E0
1.416620696E1,5.674208236E-1,-6.164029491E-1,2.099697134E0,2.260674024E0
1.417613596E1,1.266535562E0,-1.420341892E0,1.821539823E0,2.634291317E0
1.418606496E1,2.117230595E0,-2.431481014E0,1.641344716E0,3.617841593E0
1.419599396E1,2.502133505E0,-3.062160525E0,1.850223339E0,4.365870539E0
1.420592296E1,2.087410380E0,-2.950154770E0,2.498027591E0,4.393271799E0
1.421585096E1,1.485565828E0,-2.390711887E0,3.085016121E0,4.176090711E0
1.422577996E1,7.302166629E-1,-1.786132008E0,3.408061337E0,3.916422603E0
1.423570896E1,-1.451121050E-1,-1.240457565E0,3.370432458E0,3.594385545E0
1.424563796E1,-8.505020750E-1,-7.468952608E-1,2.913824265E0,3.125952360E0
1.425556696E1,-1.393494401E0,-2.783011526E-1,2.249377084E0,2.660634406E0
1.426549596E1,-1.740842984E0,9.269123197E-2,1.528185014E0,2.318291482E0
1.427542496E1,-1.949911934E0,3.104924136E-1,8.797206116E-1,2.161589796E0
1.428535396E1,-2.057623494E0,3.786136454E-1,3.831265265E-1,2.126957609E0
1.429528296E1,-2.128902222E0,3.613181663E-1,4.039431989E-2,2.159723869E0
1.430521196E1,-2.138320917E0,3.684745735E-1,-1.622748524E-2,2.169897045E0
1.431514096E1,-2.046919581E0,3.739879131E-1,1.430895531E-1,2.085718425E0
1.432506996E1,-1.781171231E0,1.625093257E-1,3.557750058E-1,1.823610728E0
1.433499796E1,-1.375218928E0,-1.061971307E-1,7.359153593E-1,1.563354198E0
1.434492696E1,-1.138973290E0,-2.007144481E-1,9.496799156E-1,1.496475321E0
1.435485596E1,-1.208336470E0,-3.065092903E-1,9.491551280E-1,1.566818569E0
1.436478496E1,-1.322736075E0,-6.235032231E-1,1.206583767E0,1.895845822E0
1.437471396E1,-1.513257072E0,-7.033335042E-1,1.922237062E0,2.545509833E0
1.438464296E1,-1.671926531E0,-9.234256250E-1,2.602065344E0,3.227816176E0
1.439457196E1,-1.835790072E0,-1.132924930E0,3.483038722E0,4.096974838E0
1.440450096E1,-1.970516937E0,-1.225596281E0,4.405689299E0,4.979469996E0
1.441442996E1,-2.376004971E0,-1.396858304E0,5.127698810E0,5.821503914E0
1.442435896E1,-2.933803616E0,-1.641902833E0,5.638996888E0,6.565160658E0
1.443428796E1,-3.484851651E0,-1.807827517E0,5.883123404E0,7.072734432E0
1.444421696E1,-4.061854307E0,-2.018966382E0,5.928492535E0,7.464710939E0
1.445414496E1,-4.120328218E0,-2.389343639E0,5.674763721E0,7.408711827E0
1.446407396E1,-4.181095406E0,-2.815244302E0,5.051321894E0,7.136036165E0
1.447400296E1,-4.202136612E0,-3.066613764E0,4.246959905E0,6.715559584E0
1.448393196E1,-4.145499896E0,-3.109021865E0,3.696189905E0,6.364982810E0
1.449386096E1,-4.118455939E0,-3.029161763E0,3.368142104E0,6.122244812E0
1.450378996E1,-4.038918019E0,-2.962120512E0,3.002064304E0,5.839469734E0
1.451371896E1,-3.889323438E0,-3.052672248E0,2.663648512E0,5.616107910E0
1.452364796E1,-3.793661236E0,-3.191293359E0,2.380576909E0,5.499396812E0
1.453357696E1,-3.891355346E0,-3.284026691E0,2.124717662E0,5.517418135E0
1.454350596E1,-3.973673033E0,-3.418995631E0,1.969545422E0,5.599885505E0
1.455343496E1,-3.959515754E0,-3.557553007E0,1.987919713E0,5.682057127E0
1.456336396E1,-3.817012677E0,-3.626808599E0,2.275317087E0,5.735886525E0
1.457329296E1,-3.603326765E0,-3.614883202E0,2.651654119E0,5.751748770E0
1.458322096E1,-3.464278808E0,-3.639364910E0,2.915362960E0,5.809091649E0
1.459314996E1,-3.397943316E0,-3.694858494E0,3.008820469E0,5.852435278E0
1.460307896E1,-3.329201694E0,-3.684993072E0,3.094677476E0,5.851477296E0
1.461300796E1,-3.355791323E0,-3.655269336E0,3.138311445E0,5.871228836E0
1.462293696E1,-3.461205511E0,-3.654146086E0,3.040954135E0,5.880487162E0
1.463286596E1,-3.675081457E0,-3.646076344E0,2.917702723E0,5.942481434E0
1.464279496E1,-3.907588971E0,-3.634116449E0,2.631713944E0,5.949955648E0
1.465272396E1,-4.050815349E0,-3.599418486E0,2.339812460E0,5.902511396E0
1.466265296E1,-4.056410549E0,-3.591450486E0,2.107607247E0,5.813345977E0
1.467258196E1,-3.862160783E0,-3.520584571E0,1.976729604E0,5.587330450E0
1.468251096E1,-3.610360381E0,-3.415035019E0,1.982237096E0,5.350367293E0
1.469243996E1,-3.398299996E0,-3.394110173E0,1.985844244E0,5.197307388E0
1.470236896E1,-3.236601094E0,-3.445636715E0,1.934817932E0,5.107985850E0
1.471229696E1,-3.272956157E0,-3.460524018E0,1.616831726E0,5.030070906E0
1.472222596E1,-3.469855297E0,-3.415351938E0,1.181827241E0,5.010113798E0
1.473215496E1,-3.617728457E0,-3.367920494E0,8.013132504E-1,5.007289743E0
1.474208396E1,-3.672594636E0,-3.247979483E0,6.140962225E-1,4.941096665E0
1.475201296E1,-3.687851191E0,-2.946978270E0,7.203082636E-1,4.775329447E0
1.476194196E1,-3.772659207E0,-2.530636343E0,1.005070589E0,4.652659958E0
1.477187096E1,-3.864216079E0,-2.202692914E0,1.333532959E0,4.643525830E0
1.478179996E1,-3.909105154E0,-2.008660664E0,1.599770721E0,4.677081047E0
1.479172896E1,-3.908348524E0,-1.909543342E0,1.796393287E0,4.706227024E0
1.480165796E1,-3.878894345E0,-1.837385193E0,1.963794978E0,4.719989025E0
1.481158696E1,-3.814243435E0,-1.739777622E0,2.141768435E0,4.707701263E0
1.482151596E1,-3.662695885E0,-1.667243496E0,2.243922801E0,4.607627541E0
1.483144396E1,-3.490973101E0,-1.652383967E0,2.245400100E0,4.467559465E0
1.484137296E1,-3.386861672E0,-1.656202199E0,2.089314233E0,4.310344728E0
1.485130196E1,-3.320339654E0,-1.728362103E0,1.807700340E0,4.156882425E0
1.486123096E1,-3.213543184E0,-1.884523106E0,1.470414231E0,4.005047458E0
1.487115996E1,-3.130989270E0,-1.891288335E0,1.079990379E0,3.813980151E0
1.488108896E1,-3.156676673E0,-1.971994529E0,7.741374385E-1,3.801665268E0
1.489101796E1,-3.150955757E0,-2.348893771E0,7.816856092E-1,4.007100762E0
1.490094696E1,-2.863312508E0,-2.740777087E0,8.528374529E-1,4.054349428E0
1.491087646E1,-2.342582286E0,-3.080572237E0,5.895200828E-1,3.914735113E0
1.492080546E1,-1.545362379E0,-3.470328922E0,-2.041558269E-1,3.804340588E0
1.493073446E1,-5.339841056E-1,-3.596181468E0,-1.279883001E0,3.854317147E0
1.494066346E1,2.211142141E-1,-3.342448561E0,-2.220098906E0,4.018668067E0
1.495059146E1,5.097368717E-1,-2.783076430E0,-2.753112373E0,3.947780875E0
1.496052046E1,5.236263478E-1,-2.174588857E0,-2.855451804E0,3.627206397E0
1.497044946E1,4.047787660E-1,-1.803398252E0,-2.611901823E0,3.199706586E0
1.498037846E1,4.231805384E-1,-1.796874513E0,-2.290247659E0,2.941610804E0
1.499030746E1,6.396736979E-1,-2.047277430E0,-1.947681221E0,2.897238246E0
1.500023646E1,6.383493036E-1,-2.372775553E0,-1.678817475E0,2.975900162E0
1.501016546E1,5.171645898E-1,-2.599149923E0,-1.523502271E0,3.056811853E0
1.502009446E1,3.227739054E-1,-2.638903388E0,-1.391308712E0,3.000622271E0
1.503002346E1,7.212774396E-2,-2.616113280E0,-1.436951785E0,2.985645916E0
1.503995246E1,8.246854484E-2,-2.465031168E0,-1.373734613E0,2.823176669E0
1.504988146E1,2.623049247E-1,-2.096980518E0,-1.119004171E0,2.391297033E0
1.505981046E1,4.129613596E-1,-1.656469417E0,-7.104308546E-1,1.849091672E0
1.506973946E1,6.317109597E-1,-1.271057214E0,-2.413850489E-1,1.439761063E0
1.507966746E1,8.445192039E-1,-9.664810127E-1,1.658606574E-1,1.294143729E0
1.508959646E1,8.787353557E-1,-7.235496676E-1,5.006041056E-1,1.243504892E0
1.509952546E1,7.139538020E-1,-3.926767838E-1,7.179456961E-1,1.085988541E0
1.510945446E1,4.986809564E-1,5.539359748E-2,6.914975703E-1,8.543535782E-1
1.511938346E1,3.090575069E-1,4.379201996E-1,4.551963830E-1,7.032029514E-1
1.512931246E1,1.385509443E-1,6.506571078E-1,1.857917690E-1,6.907022641E-1
1.513924146E1,1.097814739E-1,8.531923789E-1,1.377954841E-2,8.603366105E-1
1.514917046E1,2.500468218E-1,1.104302809E0,-6.525551140E-2,1.134136848E0
1.515909946E1,4.166176236E-1,1.323826581E0,-1.511648503E-1,1.396043650E0
1.516902846E1,5.795836169E-1,1.462195092E0,-2.569292870E-1,1.593720275E0
1.517895746E1,8.034717500E-1,1.523794339E0,-3.534989771E-1,1.758544162E0
1.518888646E1,8.988070929E-1,1.608596508E0,-5.186173305E-1,1.914262482E0
1.519881546E1,8.830985481E-1,1.743383600E0,-7.174937063E-1,2.081837323E0
1.520874346E1,8.631256288E-1,1.859059067E0,-9.649668762E-1,2.265446432E0
1.521867246E1,8.371546358E-1,1.887666569E0,-1.208501654E0,2.392611379E0
1.522860146E1,8.195685500E-1,1.836447299E0,-1.375820022E0,2.436618974E0
1.523853046E1,8.167975545E-1,1.758263009E0,-1.416450570E0,2.401037124E0
1.524845946E1,7.337887269E-1,1.635108368E0,-1.346678376E0,2.241777848E0
1.525838846E1,6.318986553E-1,1.466044899E0,-1.132900664E0,1.957561613E0
1.526831746E1,6.859918320E-1,1.247599354E0,-7.895936760E-1,1.628050096E0
1.527824646E1,7.528471416E-1,1.023460960E0,-5.001234645E-1,1.365421047E0
1.528817546E1,7.041842741E-1,8.091055423E-1,-3.103628978E-1,1.116625451E0
1.529810446E1,5.646293628E-1,5.401289445E-1,-6.650009125E-2,7.841988627E-1
1.530803346E1,3.677232063E-1,3.904355460E-1,1.591726121E-1,5.594606264E-1
1.531796246E1,1.323335999E-1,4.093045110E-1,2.521997666E-1,4.986452513E-1
1.532789146E1,-2.373326361E-2,5.773002791E-1,3.246964699E-1,6.627719651E-1
1.533781946E1,-9.157733738E-2,7.714927429E-1,3.741940275E-1,8.623274501E-1
1.534774846E1,-2.303200704E-1,9.365029228E-1,3.791875497E-1,1.036276149E0
1.535767746E1,-2.723311454E-1,1.072440162E0,4.073547569E-1,1.179080172E0
1.536760646E1,-2.324461180E-1,1.136005828E0,4.266827282E-1,1.235555984E0
1.537753546E1,-2.595146334E-1,1.176735193E0,3.856229952E-1,1.265210913E0
1.538746446E1,-2.609010082E-1,1.184730676E0,2.668110815E-1,1.242112822E0
1.539739346E1,-3.005995095E-1,1.180061089E0,4.705459088E-2,1.218654329E0
1.540732246E1,-2.837180132E-1,1.136735560E0,-1.702630261E-1,1.183914331E0
1.541725146E1,-3.138650876E-1,1.114256524E0,-2.970087343E-1,1.195112164E0
1.542718046E1,-3.176347876E-1,1.143549321E0,-3.213746667E-1,1.229584720E0
1.543710946E1,-1.614340228E-1,1.161304976E0,-2.177315998E-1,1.192517186E0
1.544703846E1,6.849720776E-2,1.177075501E0,3.063414752E-2,1.179464732E0
1.545696646E1,2.976519281E-1,1.204215937E0,3.631049292E-1,1.292508369E0
1.546689546E1,4.860503858E-1,1.201571826E0,6.717092769E-1,1.459867523E0
1.547682446E1,7.209230983E-1,1.150697542E0,8.963848838E-1,1.627065090E0
1.548675346E1,1.037692498E0,1.037292548E0,1.052286417E0,1.805571448E0
1.549668246E1,1.264179718E0,8.041354090E-1,1.140600424E0,1.883017112E0
1.550661146E1,1.335696428E0,5.585079128E-1,1.130379052E0,1.836783286E0
1.551654046E1,1.408521745E0,3.284106213E-1,1.089590338E0,1.810799312E0
1.552646946E1,1.545143108E0,1.183821434E-1,1.170314950E0,1.941936827E0
1.553639846E1,1.683724458E0,-1.579800725E-2,1.397017641E0,2.187883890E0
1.554632746E1,1.827554269E0,-7.786503196E-2,1.619904877E0,2.443380727E0
1.555625646E1,1.888954711E0,-1.763724893E-1,1.812889306E0,2.624085515E0
1.556618546E1,1.781359511E0,-3.179634011E-1,1.938324215E0,2.651686858E0
1.557611446E1,1.565723553E0,-3.640265965E-1,2.072471913E0,2.622812505E0
1.558604246E1,1.521941357E0,-3.553019661E-1,2.247816462E0,2.737740643E0
1.559597146E1,1.653589663E0,-4.237401170E-1,2.296756926E0,2.861644079E0
1.560590046E1,1.699183912E0,-5.107583803E-1,2.146551165E0,2.784920465E0
1.561582946E1,1.718920019E0,-6.272600591E-1,1.982556939E0,2.697901634E0
1.562575846E1,1.765622900E0,-7.381881720E-1,1.839265072E0,2.654287476E0
1.563568746E1,1.863087798E0,-7.443774498E-1,1.781990718E0,2.683409184E0
1.564561646E1,1.937866670E0,-6.689524609E-1,1.912210111E0,2.803457175E0
1.565554546E1,1.678574231E0,-4.050261033E-1,2.068313958E0,2.694360819E0
1.566547446E1,1.165280498E0,2.614290118E-3,1.994198745E0,2.309700004E0
1.567540346E1,7.338577241E-1,3.682710904E-1,1.666295370E0,1.857608951E0
1.568533246E1,4.556214756E-1,6.511757559E-1,1.061143049E0,1.325762182E0
1.569526146E1,2.595625806E-1,8.616609013E-1,4.644022393E-1,1.012670569E0
1.570519046E1,1.302250940E-1,1.041210183E0,-8.668292552E-2,1.052896552E0
1.571511846E1,-2.202938497E-2,1.226693219E0,-6.328169605E-1,1.380477762E0
1.572504746E1,-1.802486086E-1,1.397488049E0,-1.100754719E0,1.788050156E0
1.573497646E1,-2.957656163E-1,1.506557332E0,-1.413338974E0,2.086796432E0
1.574490546E1,-4.227379042E-1,1.518605520E0,-1.511097695E0,2.183640608E0
1.575483446E1,-3.189708763E-1,1.408990692E0,-1.377481801E0,1.996109541E0
1.576476346E1,4.453590274E-2,1.176061594E0,-8.813125160E-1,1.470311555E0
1.577469246E1,3.291678357E-1,1.008196803E0,-1.957408065E-1,1.078483529E0
1.578462146E1,5.225639087E-1,8.336492300E-1,3.747003964E-1,1.052826892E0
1.579455046E1,5.958879930E-1,5.276919168E-1,9.161826789E-1,1.213644083E0
1.580447946E1,5.230433804E-1,2.151921540E-1,1.470013404E0,1.575062363E0
1.581440846E1,3.429871452E-1,1.568340182E-2,1.958822214E0,1.988685650E0
1.582433746E1,1.559931886E-1,-7.876433372E-2,2.387001244E0,2.393389362E0
1.583426646E1,-3.095808327E-2,-2.316093814E-1,2.620714746E0,2.631111379E0
1.584419446E1,-1.439292133E-1,-4.644466782E-1,2.757316521E0,2.799860842E0
1.585412346E1,-2.873204827E-1,-6.327365613E-1,2.729809465E0,2.816872083E0
1.586405246E1,-5.865587604E-1,-6.132653332E-1,2.536260195E0,2.674464680E0
1.587398146E1,-7.643129468E-1,-6.136360466E-1,2.144229528E0,2.357635203E0
1.588391046E1,-8.095534390E-1,-7.114412534E-1,1.581972381E0,1.914200105E0
1.589383946E1,-1.095666472E0,-7.567332011E-1,7.669506258E-1,1.536666332E0
1.590376846E1,-1.450732210E0,-7.095859319E-1,-1.583288589E-1,1.622715061E0
1.591369725E1,-1.679745428E0,-5.885386276E-1,-8.930437848E-1,1.991343672E0
1.592362625E1,-1.743519255E0,-4.725848329E-1,-1.315018920E0,2.234383713E0
1.593355525E1,-1.692341500E0,-4.078450459E-1,-1.584038202E0,2.353621541E0
1.594348425E1,-1.604153209E0,-3.605328852E-1,-1.662114903E0,2.337930159E0
1.595341325E1,-1.458616596E0,-2.021610492E-1,-1.510355099E0,2.109408445E0
1.596334125E1,-1.151168243E0,-8.483315885E-2,-1.172929825E0,1.645645576E0
1.597327025E1,-9.378922212E-1,-9.880215704E-2,-9.533259469E-1,1.340982493E0
1.598319925E1,-1.170202099E0,-1.822138578E-1,-1.148190548E0,1.649520045E0
1.599312825E1,-1.602565105E0,-3.106806940E-1,-1.564689181E0,2.261192084E0
1.600305725E1,-1.945851043E0,-4.376956666E-1,-1.888990964E0,2.747034881E0
1.601298625E1,-2.222877502E0,-4.268104899E-1,-2.124524996E0,3.104345027E0
1.602291525E1,-2.385782100E0,-3.809104317E-1,-2.313479524E0,3.345031613E0
1.603284425E1,-2.377023556E0,-3.814396048E-1,-2.397695802E0,3.397746652E0
1.604277325E1,-2.129351873E0,-3.853689337E-1,-2.270469745E0,3.136507847E0
1.605270225E1,-1.750232443E0,-3.812916702E-1,-1.993675712E0,2.680193983E0
1.606263125E1,-1.401010412E0,-4.208474994E-1,-1.639476823E0,2.197231678E0
1.607256025E1,-1.168356133E0,-5.129955250E-1,-1.368615960E0,1.871184146E0
1.608248925E1,-9.219772696E-1,-7.092964947E-1,-1.190441359E0,1.664420089E0
1.609241725E1,-7.197454691E-1,-9.141051632E-1,-1.050799324E0,1.567737545E0
1.610234625E1,-5.185673368E-1,-1.091481035E0,-7.712913063E-1,1.433573581E0
1.611227525E1,-2.808739275E-1,-1.187379465E0,-5.380873892E-1,1.333528475E0
1.612220425E1,7.665056527E-2,-1.253621401E0,-3.481031665E-1,1.303310301E0
1.613213325E1,4.698810804E-1,-1.369775755E0,-2.925522789E-1,1.477383053E0
1.614206225E1,8.319114375E-1,-1.495154092E0,-3.512510151E-1,1.746693927E0
1.615199125E1,1.186357371E0,-1.588559269E0,-3.806578320E-1,2.018877101E0
1.616192025E1,1.506993535E0,-1.759506127E0,-3.137250468E-1,2.337801260E0
1.617184925E1,1.820624149E0,-1.906201658E0,-2.340523481E-1,2.646329072E0
1.618177825E1,2.104976585E0,-1.977749943E0,3.752859950E-2,2.888568790E0
1.619170725E1,2.444788107E0,-2.094025919E0,2.958395836E-1,3.232561600E0
1.620163625E1,2.334319586E0,-2.274886147E0,5.352877423E-1,3.303133039E0
1.621156525E1,1.520887104E0,-2.610146196E0,5.117035827E-1,3.063951910E0
1.622149425E1,6.209684551E-1,-3.028698079E0,6.560254365E-2,3.092396735E0
1.623142225E1,1.586776453E-1,-3.638934554E0,-3.030240574E-1,3.654975631E0
1.624135125E1,1.147603780E-1,-4.423859521E0,-7.645529750E-1,4.490906841E0
1.625128025E1,3.530326617E-1,-5.006201270E0,-1.018588183E0,5.120957440E0
1.626120925E1,6.662288278E-1,-5.329928271E0,-9.545421678E-1,5.455561106E0
