"Time (s)","Linear Acceleration x (m/s^2)","Linear Acceleration y (m/s^2)","Linear Acceleration z (m/s^2)","Absolute acceleration (m/s^2)"
2.916199999E-2,2.251250532E0,-1.908195340E-1,-3.055912592E-1,2.279896285E0
3.909099998E-2,1.278214790E0,2.719084283E-1,5.274697226E-1,1.409252125E0
4.902099998E-2,5.228837514E-1,7.688787451E-1,1.290724908E0,1.590771112E0
5.894999998E-2,-1.293228686E-1,1.283601245E0,1.916174669E0,2.309996088E0
6.887900000E-2,-4.520377171E-1,1.924038005E0,2.471778855E0,3.164798737E0
7.880799999E-2,-3.678857589E-1,2.670100330E0,3.040912328E0,4.063486617E0
8.873799999E-2,-1.253759980E-2,3.357182083E0,3.622781036E0,4.939167052E0
9.866699998E-2,3.656404281E-1,3.991890325E0,4.056902885E0,5.703274700E0
1.085960000E-1,6.477627361E-1,4.521455398E0,4.165916035E0,6.182071811E0
1.185250000E-1,6.864771509E-1,4.815836978E0,3.987418667E0,6.289916081E0
1.284540000E-1,3.935158592E-1,4.963564543E0,3.544083361E0,6.111657269E0
1.383840000E-1,2.988511920E-2,5.067220473E0,2.783369960E0,5.781415465E0
1.483130000E-1,-1.551558673E-1,4.978159193E0,2.005614265E0,5.369230007E0
1.582420000E-1,-2.995961273E-1,4.155523778E0,1.386229820E0,4.390873356E0
1.681710000E-1,-4.701430357E-1,2.706486676E0,1.180404175E0,2.989892743E0
1.781010000E-1,-9.526418227E-1,1.266077140E0,1.284612229E0,2.039780955E0
1.880300000E-1,-1.533875524E0,1.531403321E-1,1.454016591E0,2.119054112E0
1.979590000E-1,-1.841391705E0,-6.887178040E-1,1.463402396E0,2.450837040E0
2.078880000E-1,-1.974674892E0,-1.298289451E0,1.385816422E0,2.739595515E0
2.178180000E-1,-2.072733868E0,-1.692458444E0,1.264469009E0,2.959649160E0
2.277470000E-1,-2.258507511E0,-1.960303898E0,1.132733068E0,3.197926165E0
2.376760000E-1,-2.516100165E0,-2.137690587E0,8.868178888E-1,3.418614786E0
2.476050000E-1,-2.693971880E0,-2.245531078E0,6.509815552E-1,3.567025553E0
2.575350000E-1,-2.700844113E0,-2.355768050E0,5.454610205E-1,3.625152376E0
2.674640000E-1,-2.485550802E0,-2.144498793E0,4.813872313E-1,3.317916745E0
2.773930000E-1,-2.235146130E0,-1.740139272E0,3.251098680E-1,2.851255747E0
2.873220000E-1,-2.230833224E0,-1.205705589E0,1.247257511E-1,2.538877577E0
2.972520000E-1,-2.458513861E0,-4.287216158E-1,4.470817633E-3,2.495618684E0
3.071810000E-1,-2.589047104E0,3.961702393E-1,-9.316949766E-2,2.620838858E0
3.171100000E-1,-2.800704616E0,1.100904846E0,-1.721114771E-1,3.014226300E0
3.270390000E-1,-3.148736154E0,1.760596341E0,-6.385077631E-1,3.663595366E0
3.369680000E-1,-3.537022263E0,2.388934626E0,-1.670113310E0,4.583319060E0
3.468980000E-1,-3.196713728E0,2.644865501E0,-2.283253512E0,4.735772247E0
3.568270000E-1,-2.458281727E0,2.806601825E0,-2.675713949E0,4.591253423E0
3.667560000E-1,-1.912839417E0,2.815646591E0,-2.936620220E0,4.495615495E0
3.766850000E-1,-1.458907787E0,2.791321296E0,-3.034222528E0,4.373373168E0
3.866150000E-1,-9.664775044E-1,2.770189167E0,-2.969017303E0,4.174097571E0
3.965440000E-1,-3.643522865E-1,2.741294273E0,-2.846981235E0,3.968973297E0
4.064730000E-1,-5.782019198E-2,2.589965116E0,-2.686814888E0,3.732323234E0
4.164020000E-1,4.925519049E-2,2.350923047E0,-2.441783808E0,3.389922331E0
4.263320000E-1,1.560955149E-1,2.161453671E0,-2.096839600E0,3.015457526E0
4.362610000E-1,2.533873361E-1,2.080159394E0,-1.655216943E0,2.670395359E0
4.461900000E-1,4.448298544E-1,2.126905398E0,-1.170854648E0,2.468299167E0
4.561190000E-1,8.582800412E-1,2.234593568E0,-8.536420298E-1,2.541408617E0
4.660490000E-1,1.288059747E0,2.275050161E0,-6.915852785E-1,2.704300528E0
4.759780000E-1,1.746117758E0,2.236359428E0,-5.937660384E-1,2.898756427E0
4.859070000E-1,2.234415228E0,2.196881951E0,-5.214196086E-1,3.176598830E0
4.958360000E-1,2.534968545E0,2.080463887E0,-6.870115864E-1,3.350579119E0
5.057660000E-1,2.618529350E0,1.777902052E0,-1.141813867E0,3.364724442E0
5.156950000E-1,2.546920838E0,1.308275618E0,-1.802294297E0,3.383290644E0
5.256240000E-1,2.351087646E0,9.539787155E-1,-2.368367338E0,3.470857582E0
5.355530000E-1,2.022800401E0,8.424458543E-1,-2.619970688E0,3.415506242E0
5.454820000E-1,1.988294227E0,1.065039122E0,-2.441200840E0,3.323715362E0
5.554120000E-1,2.311234778E0,1.304600058E0,-1.996618908E0,3.321185718E0
5.653410000E-1,2.748590137E0,1.073051634E0,-1.450482534E0,3.287869695E0
5.752700000E-1,3.286036963E0,4.093673685E-1,-8.549962449E-1,3.420034963E0
5.851990000E-1,3.779098161E0,-2.417320812E-1,-1.702358365E-1,3.790646060E0
5.951290000E-1,3.953914706E0,-6.688807594E-1,7.369222498E-1,4.077241393E0
6.050580000E-1,3.540355176E0,-7.717754558E-1,1.713187993E0,4.008087478E0
6.149870000E-1,2.605201791E0,-6.802475274E-1,2.588723752E0,3.735144406E0
6.249160000E-1,1.429068861E0,-7.988565427E-1,3.057387443E0,3.468144685E0
6.348460000E-1,6.181378180E-1,-1.200196854E0,3.153758912E0,3.430562946E0
6.447750000E-1,1.677425838E-1,-1.726853229E0,2.770652851E0,3.269048312E0
6.547040000E-1,-1.272892070E-1,-2.294459847E0,2.202577139E0,3.183095127E0
6.646330000E-1,-2.624043274E-1,-2.878019425E0,1.740084600E0,3.373387949E0
6.745630000E-1,-3.050235128E-1,-3.556472734E0,1.434285747E0,3.846909572E0
6.844920000E-1,-1.661784536E-1,-4.078173886E0,1.196183617E0,4.253230862E0
6.944210000E-1,1.403998339E-1,-4.419145788E0,1.134675586E0,4.564652265E0
7.043500000E-1,6.310461313E-1,-4.619595650E0,1.467186860E0,4.887895301E0
7.142800000E-1,1.094281851E0,-4.392938860E0,2.172410184E0,5.021427148E0
7.242090000E-1,1.140506430E0,-3.165404519E0,3.144936633E0,4.605558285E0
7.341380000E-1,4.758756459E-1,-1.393983521E0,3.755086570E0,4.033648824E0
7.440670000E-1,-1.331089407E-1,-1.723238041E-1,4.092449863E0,4.098238569E0
7.539970000E-1,-6.191160572E-1,5.854715072E-1,4.173668858E0,4.259764467E0
7.639260000E-1,-1.190974917E0,1.134260361E0,3.893967297E0,4.227049696E0
7.738550000E-1,-1.763634846E0,1.480954129E0,3.252899623E0,3.985597692E0
7.837840000E-1,-2.095726290E0,1.701333641E0,2.430238481E0,3.632170688E0
7.937130000E-1,-2.238534007E0,1.837455651E0,1.466645408E0,3.246278873E0
8.036430000E-1,-2.292621921E0,2.055286654E0,9.112330109E-1,3.211022283E0
8.135720000E-1,-2.198505138E0,2.621977160E0,1.052890581E0,3.580051347E0
8.235010000E-1,-2.264037223E0,3.147399188E0,1.658921739E0,4.217108907E0
8.334300000E-1,-2.676312704E0,3.483382246E0,1.696533369E0,4.709015506E0
8.433600000E-1,-3.118963301E0,3.806816594E0,1.437083055E0,5.126889151E0
8.532889167E-1,-3.815659046E0,3.731388682E0,8.553049779E-1,5.405003428E0
8.632179167E-1,-4.284404597E0,3.180553778E0,1.259782612E-1,5.337407199E0
8.731469167E-1,-4.228276005E0,2.478364866E0,-2.102763999E-1,4.905591355E0
8.830769167E-1,-4.107473699E0,2.038764469E0,-3.134622145E-1,4.596320192E0
8.930059166E-1,-3.773662004E0,1.930988882E0,8.664404154E-3,4.239023244E0
9.029349167E-1,-3.535187992E0,1.736166674E0,4.493561840E-1,3.964057244E0
9.128639167E-1,-3.536491921E0,1.335938796E0,4.505724049E-1,3.807167328E0
9.227939167E-1,-3.674134208E0,7.787950382E-1,1.693610930E-1,3.759583364E0
9.327229167E-1,-3.514896399E0,9.656888612E-2,-1.921627490E-1,3.521469689E0
9.426519166E-1,-2.941592692E0,-9.086793125E-1,-1.143233717E0,3.284151183E0
9.525809167E-1,-2.056880313E0,-1.865680161E0,-3.089303885E0,4.153952043E0
9.625109167E-1,-1.629417858E0,-2.379253391E0,-3.771290374E0,4.747470941E0
9.724399167E-1,-1.836291763E0,-2.472249263E0,-3.713823938E0,4.824569629E0
9.823689167E-1,-1.950294342E0,-2.299908721E0,-3.545080311E0,4.654118881E0
9.922979166E-1,-1.426777337E0,-2.136005127E0,-3.322496692E0,4.199666146E0
1.002227917E0,-4.112691754E-1,-2.019416325E0,-3.056940715E0,3.686742622E0
1.012156917E0,5.192011750E-1,-1.810598513E0,-2.705211983E0,3.296362951E0
1.022085917E0,1.099487042E0,-1.683445546E0,-2.267587652E0,3.030645876E0
1.032014917E0,1.553983514E0,-1.903996089E0,-2.045379424E0,3.197443175E0
1.041944917E0,2.156518037E0,-2.491348608E0,-2.070506079E0,3.891578517E0
1.051873917E0,2.851035694E0,-3.119459437E0,-2.211459060E0,4.769694213E0
1.061802917E0,3.489860376E0,-3.837141424E0,-2.361820210E0,5.699208231E0
1.071731917E0,4.299745352E0,-4.468764676E0,-2.510345335E0,6.690254219E0
1.081660917E0,5.041576924E0,-4.778256923E0,-2.553210104E0,7.400548557E0
1.091590917E0,4.934859391E0,-4.769367693E0,-2.700941176E0,7.375282276E0
1.101519917E0,3.643760846E0,-4.109236634E0,-3.004755485E0,6.260301458E0
1.111448917E0,2.236046602E0,-2.940448684E0,-3.384062026E0,5.009792277E0
1.121377917E0,1.702778780E0,-1.787265491E0,-3.708134598E0,4.454664488E0
1.131307917E0,2.134670500E0,-7.511058408E-1,-3.496285297E0,4.164731564E0
1.141236917E0,2.953087149E0,1.087765933E-1,-2.609826354E0,3.942556233E0
1.151165917E0,3.505626808E0,9.346019930E-1,-1.486591430E0,3.920823164E0
1.161094917E0,3.216309502E0,1.530353161E0,-4.597268422E-1,3.591375277E0
1.171024917E0,2.438584796E0,1.598027958E0,2.172427726E-1,2.923625076E0
1.180953917E0,1.621807122E0,1.303443479E0,6.197651712E-1,2.171020984E0
1.190882917E0,8.865466511E-1,1.059934137E0,8.843715600E-1,1.640590868E0
1.200811917E0,3.675957370E-1,9.209680402E-1,1.039805682E0,1.436838409E0
1.210741917E0,2.963748962E-1,9.767101318E-1,1.159405800E0,1.544675555E0
1.220670917E0,7.599246114E-1,1.302407645E0,1.302222873E0,1.992369318E0
1.230599917E0,1.381967785E0,1.755515695E0,1.583086860E0,2.738217362E0
1.240528917E0,1.785130380E0,2.337951291E0,1.989791699E0,3.551334639E0
1.250458917E0,1.818439629E0,2.885253600E0,2.416365377E0,4.179740740E0
1.260387917E0,1.496905918E0,3.265073526E0,2.701804225E0,4.494572119E0
1.270316917E0,8.332750082E-1,3.481590367E0,2.799861447E0,4.544781936E0
1.280245917E0,-1.044546604E-1,3.410701355E0,3.141103783E0,4.637922756E0
1.290175917E0,-1.001327494E0,2.942915040E0,3.306329141E0,4.538195464E0
1.300104917E0,-1.246612344E0,1.939833966E0,2.991527329E0,3.777066840E0
1.310033917E0,-1.176208944E0,4.893391523E-1,2.556143067E0,2.856009045E0
1.319962917E0,-1.639030681E0,-8.013445330E-1,2.170798107E0,2.835654960E0
1.329892917E0,-1.980387037E0,-1.776193788E0,1.829089163E0,3.228368684E0
1.339821917E0,-1.980629697E0,-2.439387327E0,1.569491938E0,3.512379459E0
1.349750917E0,-1.744519714E0,-2.743704788E0,1.309951723E0,3.505315750E0
1.359679917E0,-1.492599444E0,-2.915479612E0,1.144225844E0,3.469456333E0
1.369609917E0,-1.411885648E0,-3.044334995E0,1.101622299E0,3.531992120E0
1.379538917E0,-1.577268881E0,-3.082303598E0,9.907841606E-1,3.601392209E0
1.389467917E0,-1.788111291E0,-2.938597456E0,8.216465043E-1,3.536636817E0
1.399396917E0,-1.879567591E0,-2.716223752E0,7.896827730E-1,3.396210341E0
1.409325917E0,-1.717537152E0,-2.162073476E0,6.834131368E-1,2.844564835E0
1.419255917E0,-1.620124878E0,-1.441086059E0,5.124599200E-1,2.228036988E0
1.429184917E0,-1.716288772E0,-7.471165779E-1,3.243719129E-1,1.899749317E0
1.439113917E0,-2.066611834E0,-2.066277373E-1,9.608323831E-2,2.079137196E0
1.449042917E0,-2.382823409E0,1.673955515E-1,-1.413564384E-1,2.392874905E0
1.458972917E0,-2.610321028E0,4.881378418E-1,-4.209375465E-1,2.688725133E0
1.468901917E0,-2.959648894E0,6.875349122E-1,-4.488638484E-1,3.071433637E0
1.478830917E0,-3.162243807E0,8.500243574E-1,-4.210568297E-1,3.301456672E0
1.488759917E0,-3.233874537E0,1.001347960E0,-3.309313560E-1,3.401493469E0
1.498689917E0,-3.339772875E0,1.040296555E0,-3.488706136E-1,3.515396206E0
1.508618917E0,-3.235590695E0,1.014060099E0,-4.866648917E-1,3.425522989E0
1.518547917E0,-3.160695464E0,8.329557502E-1,-7.353493488E-1,3.350305921E0
1.528476917E0,-3.061764084E0,5.818698782E-1,-9.563822865E-1,3.260005972E0
1.538406917E0,-2.912197570E0,2.878207486E-1,-1.127165422E0,3.135958762E0
1.548335917E0,-2.695345391E0,-7.343481593E-3,-1.338950404E0,3.009606102E0
1.558264917E0,-2.476146140E0,-2.758649102E-1,-1.615821912E0,2.969559161E0
1.568193917E0,-2.045616236E0,-3.187501805E-1,-1.863712281E0,2.785600641E0
1.578123917E0,-1.480776958E0,-2.162414369E-1,-1.959783204E0,2.465808380E0
1.588052917E0,-8.965231705E-1,-7.237625062E-2,-1.995397425E0,2.188744617E0
1.597981917E0,-1.217711896E-1,2.952574567E-1,-1.912868654E0,1.939348260E0
1.607910917E0,7.081188655E-1,8.033533439E-1,-1.742212987E0,2.045022008E0
1.617840917E0,1.681935210E0,1.398494647E0,-1.743287705E0,2.797095878E0
1.627769917E0,2.736530839E0,2.163041483E0,-1.598705358E0,3.837083308E0
1.637698917E0,3.584191167E0,2.906664642E0,-1.370655177E0,4.813919534E0
1.647627917E0,4.079211182E0,3.658522435E0,-1.283652116E0,5.627833777E0
1.657557917E0,4.108427964E0,4.428280016E0,-1.371498345E0,6.194340316E0
1.667486917E0,3.748854607E0,5.109986424E0,-1.784256806E0,6.584029501E0
1.677415917E0,3.147353872E0,5.550445485E0,-2.601669488E0,6.890715899E0
1.687344917E0,2.326884851E0,5.698439097E0,-3.444422833E0,7.053414060E0
1.697274917E0,1.536306796E0,5.197173087E0,-3.748573941E0,6.589586729E0
1.707203917E0,1.358931509E0,4.026748794E0,-3.091643940E0,5.255441270E0
1.717132917E0,1.706087134E0,3.108386858E0,-1.974932170E0,4.058713989E0
1.727061917E0,2.522841420E0,2.417862556E0,-8.475428722E-1,3.595708149E0
1.736991917E0,3.555601206E0,1.529728094E0,-5.811620727E-3,3.870710756E0
1.746920917E0,4.157932831E0,4.584718470E-1,5.494412933E-1,4.219062407E0
1.756849917E0,4.010277187E0,-7.361711749E-1,1.502588827E0,4.345347431E0
1.766778917E0,3.115315808E0,-1.814232265E0,2.581197217E0,4.433870811E0
1.776708917E0,1.388897320E0,-3.004442074E0,3.038482225E0,4.493114975E0
1.786637917E0,-1.694792068E-1,-4.218005370E0,3.179044611E0,5.284564045E0
1.796566917E0,-8.123606873E-1,-5.164829214E0,2.936102157E0,5.996339431E0
1.806495917E0,-7.339705753E-1,-5.735522724E0,2.343152536E0,6.239014147E0
1.816424917E0,-3.947005051E-1,-5.954436631E0,1.718527524E0,6.210027450E0
1.826354917E0,2.468519032E-2,-5.880037828E0,1.194434715E0,6.000177373E0
1.836283917E0,3.618368143E-1,-5.678370284E0,7.318151455E-1,5.736755910E0
1.846212917E0,5.575004375E-1,-5.406765947E0,3.325302771E-1,5.445594654E0
1.856142750E0,6.451414293E-1,-5.287905502E0,1.800467335E-1,5.330156554E0
1.866071750E0,8.014252245E-1,-5.156862382E0,4.058293645E-1,5.234520942E0
1.876000750E0,1.036018440E0,-4.760521733E0,9.043477683E-1,4.955173687E0
1.885929750E0,1.309286309E0,-3.853308683E0,1.362401101E0,4.291661124E0
1.895858750E0,1.210796394E0,-2.816938241E0,1.730766916E0,3.520898050E0
1.905788750E0,1.151535448E0,-2.043113189E0,2.036525132E0,3.106087572E0
1.915717750E0,1.185129456E0,-1.425790035E0,2.219055762E0,2.891646162E0
1.925646750E0,1.122609272E0,-7.800402027E-1,2.353051726E0,2.721317093E0
1.935575750E0,8.276663589E-1,-2.584817228E-1,2.446051691E0,2.595190412E0
1.945505750E0,3.999343479E-1,1.700775231E-1,2.436271491E0,2.474730819E0
1.955434750E0,-5.086726785E-2,3.823318899E-1,2.392423952E0,2.423315398E0
1.965363750E0,-4.086262339E-1,5.023057915E-1,2.371601871E0,2.458410450E0
1.975292750E0,-4.820959139E-1,7.550600204E-1,2.518897180E0,2.673457520E0
1.985222750E0,-6.939446300E-1,8.387089719E-1,2.535446847E0,2.759253994E0
1.995151750E0,-1.120850430E0,5.272197542E-1,1.813653098E0,2.196270456E0
2.005080750E0,-1.530963026E0,-5.879886970E-2,9.992908361E-1,1.829176664E0
2.015009750E0,-1.426858613E0,-6.344000942E-1,5.752864981E-1,1.664134471E0
2.024939750E0,-1.215564798E0,-1.259801323E0,3.761969912E-1,1.790592452E0
2.034868750E0,-8.897614503E-1,-1.800417341E0,3.635863012E-1,2.040924555E0
2.044797750E0,-4.858498263E-1,-2.197079295E0,4.459320545E-1,2.293918673E0
2.054726750E0,-1.335860735E-1,-2.430057655E0,5.978112153E-1,2.506073362E0
2.064656750E0,4.060832798E-2,-2.430544728E0,8.021256479E-1,2.559805123E0
2.074585750E0,-1.368973517E-1,-2.342017445E0,8.579327166E-1,2.497966201E0
2.084514750E0,-3.328995287E-1,-2.230551388E0,7.985887402E-1,2.392472689E0
2.094443750E0,-4.200066698E-1,-2.070855743E0,6.476013529E-1,2.210030910E0
2.104373750E0,-5.314581084E-1,-1.832557147E0,4.202136612E-1,1.953789379E0
2.114302750E0,-6.725853360E-1,-1.494738501E0,2.098763772E-1,1.652471578E0
2.124231750E0,-8.069245309E-1,-1.117445230E0,8.435595296E-2,1.380915265E0
2.134160750E0,-8.798533434E-1,-7.673099372E-1,1.855263054E-2,1.167583250E0
2.144090750E0,-9.721709383E-1,-5.679608139E-1,-2.501263440E-2,1.126197785E0
2.154019750E0,-1.043104096E0,-4.573144638E-1,-9.756435631E-2,1.143119188E0
2.163948750E0,-1.048658951E0,-3.841173372E-1,-1.482497209E-1,1.126592075E0
2.173877750E0,-1.162929917E0,-2.533423857E-1,-1.663433450E-1,1.201773050E0
2.183807750E0,-1.342315477E0,-9.048661239E-2,-2.300739026E-1,1.364892914E0
2.193736750E0,-1.604849612E0,5.372904137E-2,-3.337894750E-1,1.640074541E0
2.203665750E0,-1.919434492E0,1.853772014E-1,-4.953667545E-1,1.990975062E0
2.213594750E0,-2.190546493E0,2.620280591E-1,-6.580760550E-1,2.302219958E0
2.223524750E0,-2.370170619E0,3.302719362E-1,-8.495537297E-1,2.539395569E0
2.233453750E0,-2.366921906E0,4.875237380E-1,-1.074685346E0,2.644796268E0
2.243382750E0,-2.268686929E0,7.181522490E-1,-1.454600143E0,2.789004233E0
2.253311750E0,-2.354251574E0,1.088867329E0,-2.374822079E0,3.516804294E0
2.263241750E0,-2.552813078E0,1.511055157E0,-3.262710081E0,4.409696063E0
2.273170750E0,-1.913029452E0,1.325714647E0,-2.925429819E0,3.738360688E0
2.283099750E0,-8.751790792E-1,7.157046045E-1,-2.282371606E0,2.547035856E0
2.293028750E0,8.177331090E-2,-1.627283040E-1,-1.926320758E0,1.934910602E0
2.302958750E0,7.688310903E-1,-1.006153275E0,-1.829385617E0,2.224881433E0
2.312887750E0,1.107721676E0,-1.720768470E0,-1.840648524E0,2.752467697E0
2.322816750E0,1.331412758E0,-2.507506804E0,-1.781840737E0,3.351895988E0
2.332745750E0,1.608303562E0,-3.309159778E0,-1.756312963E0,4.076985897E0
2.342675750E0,1.719512342E0,-4.166130627E0,-1.804874089E0,4.854990996E0
2.352604750E0,1.564323145E0,-5.084684937E0,-1.944987409E0,5.664283170E0
2.362533750E0,1.362556198E0,-5.933511200E0,-2.106481658E0,6.442078821E0
2.372462750E0,1.082596191E0,-6.556908004E0,-2.161720304E0,6.988425556E0
2.382392750E0,5.745111573E-1,-6.786456826E0,-2.107957495E0,7.129484142E0
2.392321750E0,-1.533748055E-1,-6.823422339E0,-1.901116920E0,7.084974368E0
2.402250750E0,-9.350066203E-1,-6.768884189E0,-1.680809036E0,7.036842301E0
2.412179750E0,-1.407135955E0,-6.756154216E0,-1.454908876E0,7.052830015E0
2.422109750E0,-9.949043280E-1,-6.797724996E0,-1.163861378E0,6.968032222E0
2.432038750E0,2.714324284E-1,-6.937506779E0,-9.724211991E-1,7.010583346E0
2.441967750E0,2.728292112E0,-5.392886996E0,-7.643351662E-1,6.091881175E0
2.451896750E0,4.612632201E0,-2.811987111E0,-2.833701404E-1,5.409616065E0
2.461826750E0,4.788431078E0,-1.124177495E0,3.172570574E-1,4.928843604E0
2.471755750E0,4.144829221E0,1.080641832E-1,1.023028851E0,4.270582532E0
2.481684750E0,3.205731888E0,1.176650993E0,1.846992753E0,3.882345519E0
2.491613750E0,2.370836617E0,2.107382129E0,2.701267451E0,4.166385909E0
2.501543750E0,1.876225322E0,2.966700344E0,3.482394651E0,4.944553053E0
2.511472750E0,1.350916146E0,3.713443869E0,3.818745207E0,5.495221084E0
2.521401750E0,9.009419113E-1,4.427269033E0,3.995761474E0,6.031460617E0
2.531330750E0,4.762609774E-1,4.985422019E0,4.010170183E0,6.415818118E0
2.541260750E0,-2.358988988E-1,5.258795139E0,3.459980519E0,6.299368206E0
2.551189750E0,-1.006972981E0,5.346799827E0,2.523503909E0,5.997527404E0
2.561118750E0,-1.694483920E0,5.310519608E0,1.595305202E0,5.798093907E0
2.571047750E0,-2.180999159E0,5.194573415E0,1.070535431E0,5.734666198E0
2.580977750E0,-2.391305965E0,5.020339837E0,9.564524531E-1,5.642424797E0
2.590906750E0,-2.391815842E0,4.583285610E0,1.322907837E0,5.336419694E0
2.600835750E0,-2.345689496E0,3.888679660E0,1.600309688E0,4.815088764E0
2.610764750E0,-2.479912332E0,3.269367429E0,1.598823910E0,4.403971668E0
2.620694750E0,-2.676165939E0,2.670740015E0,1.613427916E0,4.110701400E0
2.630623750E0,-2.736135567E0,2.065592956E0,1.494483417E0,3.739865343E0
2.640552750E0,-2.743451019E0,1.512230301E0,1.277829313E0,3.383225048E0
2.650481750E0,-2.669006608E0,9.740198278E-1,1.127095256E0,3.056575635E0
2.660411750E0,-2.348765132E0,5.720620510E-1,1.098415686E0,2.655272049E0
2.670340750E0,-1.877767818E0,2.780394897E-1,1.111963831E0,2.199950340E0
2.680269750E0,-1.373423249E0,5.600433916E-2,1.090112786E0,1.754358513E0
2.690198750E0,-7.968035853E-1,2.111663461E-2,9.605455041E-1,1.248194509E0
2.700128750E0,-2.504754227E-1,3.750695567E-2,8.486220489E-1,8.856094461E-1
2.710057750E0,1.350899774E-1,2.189498672E-1,6.407769214E-1,6.904950465E-1
2.719986750E0,1.944433093E-1,5.203402126E-1,3.349833302E-1,6.486724666E-1
2.729915750E0,-1.389298439E-3,8.241916510E-1,4.995744109E-2,8.257054885E-1
2.739845750E0,-2.917246056E-1,1.146232608E0,-2.246693212E-1,1.203922232E0
2.749774750E0,-5.440401471E-1,1.467342981E0,-6.181163295E-1,1.682600042E0
2.759703750E0,-7.506585288E-1,1.654084630E0,-1.001494798E0,2.074241071E0
2.769632750E0,-1.030646018E0,1.681689335E0,-1.356997250E0,2.394107719E0
2.779562750E0,-1.337227814E0,1.594526353E0,-1.699020774E0,2.686515235E0
2.789491750E0,-1.610503285E0,1.565578542E0,-2.061089723E0,3.048417270E0
2.799420750E0,-1.954960420E0,1.540020070E0,-2.322001256E0,3.403707081E0
2.809349750E0,-2.085610607E0,1.289351982E0,-2.426818444E0,3.449876505E0
2.819279750E0,-2.027819651E0,1.053743397E0,-2.483775587E0,3.375139827E0
2.829208750E0,-1.911101625E0,8.749767655E-1,-2.551955291E0,3.306110943E0
2.839137750E0,-1.765552733E0,7.280488077E-1,-3.026574955E0,3.578741046E0
2.849067167E0,-1.328013187E0,6.447455728E-1,-4.444647542E0,4.683397021E0
2.858997167E0,-8.890831733E-1,5.882658550E-1,-4.757619760E0,4.875599592E0
2.868926167E0,-9.425033355E-1,7.058422521E-1,-4.359561199E0,4.515783395E0
2.878855167E0,-7.825357944E-1,1.043337108E0,-3.994491459E0,4.202008640E0
2.888784167E0,-1.113958901E-1,1.312519820E0,-3.409284575E0,3.654906105E0
2.898714167E0,7.570811105E-1,1.499136046E0,-2.635485106E0,3.125117987E0
2.908643167E0,1.836708670E0,1.783424455E0,-1.856319062E0,3.162281136E0
2.918572167E0,2.864749169E0,2.311232439E0,-1.242598815E0,3.884924067E0
2.928501167E0,3.534523748E0,2.932952554E0,-7.536979115E-1,4.654366697E0
2.938431167E0,3.579399959E0,3.445150226E0,-3.852625144E-1,4.982929997E0
2.948360167E0,3.049653915E0,3.750771909E0,-2.042087076E-1,4.838427442E0
2.958289167E0,2.251255209E0,3.831094234E0,-2.320256666E-1,4.449636946E0
2.968218167E0,1.760471503E0,3.743740340E0,-5.041136044E-1,4.167611087E0
2.978148167E0,1.918086709E0,3.418738938E0,-9.649320853E-1,4.037069045E0
2.988077167E0,2.337985790E0,2.934304430E0,-1.342102053E0,3.984665351E0
2.998006167E0,2.760371107E0,2.620963838E0,-1.473444550E0,4.081683345E0
3.007935167E0,3.312462870E0,2.506079499E0,-1.417637554E0,4.388911135E0
3.017865167E0,3.861204763E0,2.455976754E0,-1.226238306E0,4.737550466E0
3.027794167E0,4.073465708E0,2.172752831E0,-1.055135912E0,4.735745932E0
3.037723167E0,3.452488482E0,1.612265051E0,-1.091151252E0,3.963544672E0
3.047652167E0,2.447736858E0,1.017374885E0,-1.120970882E0,2.878027641E0
3.057582167E0,1.164651922E0,3.343812132E-1,-1.070863168E0,1.617087759E0
3.067511167E0,-3.836299717E-2,-3.941312787E-1,-8.484081870E-1,9.362732701E-1
3.077440167E0,-8.775583112E-1,-1.063682787E0,-5.469906521E-1,1.483485232E0
3.087369167E0,-1.347061661E0,-1.660338227E0,-2.172556182E-1,2.149069136E0
3.097299167E0,-1.416230714E0,-2.224917011E0,1.726156533E-1,2.643059081E0
3.107228167E0,-1.036435931E0,-2.655577600E0,4.954088910E-1,2.893392784E0
3.117157167E0,-7.550340003E-1,-3.078427479E0,6.959297597E-1,3.245167224E0
3.127086167E0,-3.539530134E-1,-3.437478972E0,8.726852417E-1,3.564144210E0
3.137016167E0,2.852575850E-1,-3.709064305E0,1.079171476E0,3.873388824E0
3.146945167E0,7.749852848E-1,-3.822378959E0,1.218206570E0,4.085977281E0
3.156874167E0,1.224478294E0,-3.681376277E0,1.424596910E0,4.132959562E0
3.166803167E0,1.548562560E0,-3.513962014E0,1.789868964E0,4.236697529E0
3.176733167E0,1.633850048E0,-3.308417474E0,2.374387631E0,4.387802272E0
3.186662167E0,1.938051442E0,-2.663571329E0,3.013501750E0,4.464509874E0
3.196591167E0,1.684661767E0,-1.788662391E0,3.452080346E0,4.237246410E0
3.206520167E0,8.021046710E-1,-1.083975256E0,3.414821303E0,3.671427351E0
3.216450167E0,5.152098656E-2,-5.828139111E-1,3.061634860E0,3.117039378E0
3.226379167E0,-2.105289996E-1,-4.937798202E-2,2.877040016E0,2.885155091E0
3.236308167E0,-2.788133687E-1,5.643638992E-1,2.864186082E0,2.932542483E0
3.246237167E0,-3.979392779E-1,1.322556858E0,2.772542671E0,3.097499826E0
3.256167167E0,-1.223055081E0,1.703242464E0,2.686333662E0,3.407827338E0
3.266096167E0,-2.055940080E0,1.771756336E0,2.378221650E0,3.608593680E0
3.276025167E0,-2.077667164E0,2.104107981E0,1.861546472E0,3.494184670E0
3.285954167E0,-2.162699128E0,2.275830180E0,1.347629426E0,3.416544394E0
3.295884167E0,-2.508694081E0,2.112120713E0,9.227572882E-1,3.406769865E0
3.305813167E0,-2.845284373E0,1.823795971E0,7.532196093E-1,3.462544539E0
3.315742167E0,-3.044808912E0,1.551587909E0,6.958525765E-1,3.487477192E0
3.325671167E0,-3.062812489E0,1.360087796E0,7.053426075E-1,3.424641200E0
3.335601167E0,-3.068974285E0,1.329056915E0,6.569580674E-1,3.408311803E0
3.345530167E0,-3.238290939E0,1.191402349E0,5.344893050E-1,3.491653846E0
3.355459167E0,-3.300048062E0,9.608916593E-1,1.565651925E-1,3.440660205E0
3.365388167E0,-3.265328465E0,6.843043256E-1,-1.534755237E-1,3.339789983E0
3.375318167E0,-3.336820031E0,4.106625268E-1,-3.170233150E-1,3.376909151E0
3.385247167E0,-3.357800426E0,2.291731573E-1,-6.231364565E-1,3.422812160E0
3.395176167E0,-3.242065317E0,1.870509852E-1,-9.574977891E-1,3.385672401E0
3.405105167E0,-3.233569897E0,5.287785122E-2,-1.340871653E0,3.500958031E0
3.415035167E0,-3.341274440E0,-2.072761752E-1,-1.684875044E0,3.747783640E0
3.424964167E0,-3.408883456E0,-5.169073123E-1,-1.873895646E0,3.924176917E0
3.434893167E0,-3.216719391E0,-6.944732183E-1,-1.989573744E0,3.845514319E0
3.444822167E0,-2.850581365E0,-7.239981490E-1,-1.979902157E0,3.545419579E0
3.454752167E0,-2.258189422E0,-7.122949469E-1,-1.869972310E0,3.017213947E0
3.464681167E0,-1.474496464E0,-6.629950252E-1,-1.728289743E0,2.366577204E0
3.474610167E0,-7.649473697E-1,-6.263628039E-1,-1.560888491E0,1.847660066E0
3.484540167E0,-1.943977010E-1,-5.478931698E-1,-1.479692739E0,1.589801243E0
3.494469167E0,1.964108974E-1,-4.701240322E-1,-1.540942469E0,1.622990307E0
3.504398167E0,5.192421055E-1,-3.847491288E-1,-1.708921134E0,1.827034673E0
3.514327167E0,8.641828054E-1,-3.240427512E-1,-1.926075321E0,2.135785984E0
3.524256167E0,1.285982816E0,-3.559711799E-1,-2.165087131E0,2.543239975E0
3.534186167E0,1.773705506E0,-5.571320629E-1,-2.371761646E0,3.013582696E0
3.544115167E0,2.211940286E0,-1.048546684E0,-2.558547442E0,3.540945494E0
3.554044167E0,2.724722387E0,-1.596450964E0,-2.738848675E0,4.180198540E0
3.563974167E0,3.385722050E0,-1.999179989E0,-2.797109163E0,4.825313886E0
3.573903167E0,4.050607188E0,-2.091781466E0,-2.777889365E0,5.338505185E0
3.583832167E0,4.279531528E0,-2.060907582E0,-2.810913270E0,5.519326369E0
3.593761167E0,4.069731676E0,-1.871603391E0,-2.814031005E0,5.290027000E0
3.603691167E0,3.775679879E0,-1.467518397E0,-2.816754638E0,4.933910770E0
3.613620167E0,3.694079645E0,-7.184742844E-1,-2.924764405E0,4.766201480E0
3.623549167E0,3.919945891E0,3.165232684E-1,-2.953879739E0,4.918492481E0
3.633478167E0,3.891414403E0,1.055968555E0,-2.804343338E0,4.911467927E0
3.643408167E0,2.929464982E0,1.184013807E0,-2.353948542E0,3.940143083E0
3.653337167E0,1.415778725E0,9.890524346E-1,-1.639676067E0,2.381426405E0
3.663266167E0,1.194130075E-1,8.694499773E-1,-7.962200332E-1,1.184976401E0
3.673195167E0,-7.281794930E-1,9.298604858E-1,-7.701718569E-2,1.183561382E0
3.683125167E0,-1.266805118E0,1.151401839E0,5.763984923E-1,1.806310224E0
3.693054167E0,-1.561310660E0,1.450505631E0,1.324333388E0,2.509086783E0
3.702983167E0,-1.268928827E0,1.923292777E0,2.077263414E0,3.102298949E0
3.712912167E0,-5.375824821E-1,2.522313416E0,2.806793321E0,3.811712036E0
3.722842167E0,2.433733946E-1,3.122969813E0,3.453411173E0,4.662426385E0
3.732771167E0,8.364266574E-1,3.694515848E0,3.827890252E0,5.385331994E0
3.742700167E0,1.141384681E0,4.134080284E0,3.787427520E0,5.721711807E0
3.752629167E0,1.177208818E0,4.405350160E0,3.301562490E0,5.629675436E0
3.762559167E0,9.923485100E-1,4.510980695E0,2.426391013E0,5.217382078E0
3.772488167E0,5.363060349E-1,4.187957114E0,1.534702320E0,4.492429205E0
3.782417167E0,2.818416417E-1,3.422816786E0,1.021488109E0,3.583091880E0
3.792346167E0,5.030529195E-1,2.151370148E0,8.883815074E-1,2.381318428E0
3.802276167E0,4.949650508E-1,9.710590902E-1,9.792489928E-1,1.465221740E0
3.812205167E0,3.961137772E-2,1.582981428E-1,1.024864292E0,1.037773665E0
3.822134167E0,-5.093299055E-1,-4.652980328E-1,9.937845862E-1,1.209763206E0
3.832063167E0,-1.002315089E0,-9.352922568E-1,8.918956840E-1,1.635507583E0
3.841993167E0,-1.416860459E0,-1.377963611E0,6.831079853E-1,2.091151309E0
3.851922000E0,-1.704131241E0,-1.802021817E0,5.275919294E-1,2.535685146E0
3.861851000E0,-1.722866889E0,-1.994933156E0,4.981511986E-1,2.682570266E0
3.871780000E0,-1.856814321E0,-2.047694629E0,6.084519783E-1,2.830375686E0
3.881710000E0,-2.364402925E0,-2.147904211E0,7.567548358E-1,3.282768888E0
3.891639000E0,-2.880711483E0,-2.106642164E0,9.360328066E-1,3.689525345E0
3.901568000E0,-3.272581351E0,-1.736726252E0,1.125406580E0,3.872021015E0
3.911497000E0,-3.794550598E0,-1.583054993E0,1.201146734E0,4.283390109E0
3.921427000E0,-4.165076374E0,-1.494736601E0,1.082569878E0,4.555661999E0
3.931356000E0,-4.238232644E0,-1.244221710E0,8.473879210E-1,4.497640481E0
3.941285000E0,-4.262504436E0,-1.082704949E0,5.336472329E-1,4.430121154E0
3.951215000E0,-4.130205919E0,-9.383310547E-1,1.485567728E-1,4.238057954E0
3.961144000E0,-3.765227396E0,-7.600365856E-1,-2.744191861E-1,3.850960769E0
3.971073000E0,-3.349862831E0,-5.346495187E-1,-6.135120857E-1,3.447292876E0
3.981002000E0,-3.130989854E0,-3.569611135E-1,-8.640746319E-1,3.267589888E0
3.990932000E0,-2.920458516E0,-3.192436489E-1,-1.064643484E0,3.124813626E0
4.000861000E0,-2.593506775E0,-1.715564119E-1,-1.254173963E0,2.885942017E0
4.010790000E0,-2.276961908E0,7.523613294E-2,-1.435879698E0,2.692947551E0
4.020719000E0,-1.958153000E0,3.649007553E-1,-1.623184726E0,2.569483292E0
4.030649000E0,-1.556922324E0,7.126375937E-1,-1.666565219E0,2.389413964E0
4.040578000E0,-1.191659626E0,1.033470224E0,-1.698496864E0,2.317974324E0
4.050507000E0,-5.317224026E-1,1.491715052E0,-1.836546117E0,2.425045185E0
4.060436000E0,3.120746702E-1,2.099138725E0,-2.143846390E0,3.016595983E0
4.070366000E0,1.131893481E0,2.812052307E0,-3.104256384E0,4.338804989E0
4.080295000E0,1.929389961E0,3.671313803E0,-4.155336667E0,5.870938041E0
4.090224000E0,2.790321715E0,4.321720650E0,-3.904256058E0,6.458047694E0
4.100153000E0,3.531694281E0,4.882819465E0,-3.188888984E0,6.817903150E0
4.110083000E0,4.070889425E0,5.448656570E0,-2.493760293E0,7.244228014E0
4.120012000E0,4.643470416E0,6.030653917E0,-2.049283610E0,7.882269184E0
4.129941000E0,4.971140195E0,6.621078857E0,-1.925712647E0,8.500546410E0
4.139870000E0,4.528132918E0,6.851391326E0,-1.919649670E0,8.433896233E0
4.149800000E0,3.732153790E0,6.285682567E0,-2.192988290E0,7.632036090E0
4.159729000E0,3.645838362E0,5.046645876E0,-2.540667826E0,6.724266871E0
4.169658000E0,3.997760053E0,4.015676799E0,-2.177872068E0,6.070491935E0
4.179587000E0,4.290839458E0,3.291401199E0,-1.200156289E0,5.539404320E0
4.189517000E0,4.716574645E0,2.557980262E0,-5.182165039E-1,5.390536870E0
4.199446000E0,4.638917189E0,1.637599575E0,-5.487331954E-1,4.949989210E0
4.209375000E0,3.749139951E0,5.560400954E-1,-8.241006538E-1,3.878707626E0
4.219304000E0,2.666680001E0,-3.418785131E-1,-8.082361344E-1,2.807366879E0
4.229234000E0,1.681135896E0,-9.851005939E-1,-3.194674511E-1,1.974512733E0
4.239163000E0,6.165158004E-1,-1.478854394E0,3.031032872E-1,1.630635966E0
4.249092000E0,-4.805224282E-1,-1.913873790E0,7.912113082E-1,2.125989187E0
4.259021000E0,-1.273289680E0,-2.331614371E0,1.101684426E0,2.876004305E0
4.268951000E0,-1.530197625E0,-2.653416762E0,1.335744960E0,3.341607380E0
4.278880000E0,-1.528852181E0,-2.983623648E0,1.420673429E0,3.641114123E0
4.288809000E0,-1.421658100E0,-3.541219980E0,1.353131071E0,4.048742322E0
4.298738000E0,-1.075946737E0,-4.073817418E0,1.093748512E0,4.353152368E0
4.308668000E0,-5.120126081E-1,-4.445089007E0,7.855803665E-1,4.542918633E0
4.318597000E0,2.333366489E-1,-4.796965089E0,6.872885983E-1,4.851565281E0
4.328526000E0,1.030059543E0,-5.247354476E0,9.604846931E-1,5.433073026E0
4.338455000E0,1.796052395E0,-5.699073520E0,1.778846962E0,6.234544066E0
4.348385000E0,2.384152481E0,-5.712144971E0,2.804918704E0,6.795612714E0
4.358314000E0,2.388870599E0,-5.039821590E0,3.727254993E0,6.708124491E0
4.368243000E0,1.611307862E0,-3.468514238E0,4.224829071E0,5.698779231E0
4.378172000E0,8.341170073E-1,-1.815792595E0,4.208268002E0,4.658580632E0
4.388102000E0,3.243666869E-1,-4.674603331E-1,4.178936030E0,4.217492057E0
4.398031000E0,-2.337582332E-1,6.955619699E-1,4.143962663E0,4.208429151E0
4.407960000E0,-1.018101402E0,1.647705902E0,3.891509128E0,4.346873416E0
4.417890000E0,-1.742690704E0,2.509168290E0,3.646571603E0,4.757139987E0
4.427819000E0,-2.334607853E0,3.307789775E0,3.261155891E0,5.198750309E0
4.437748000E0,-3.041059678E0,3.713791779E0,2.385079265E0,5.359934369E0
4.447677000E0,-3.567334814E0,3.895446058E0,1.556420048E0,5.506616115E0
4.457607000E0,-3.870785426E0,3.893387253E0,6.113883770E-1,5.524060089E0
4.467536000E0,-3.726422349E0,3.627027285E0,9.642570242E-3,5.200158019E0
4.477465000E0,-3.311584618E0,3.058934031E0,-1.463153889E-1,4.510551882E0
4.487394000E0,-2.957122312E0,2.570344784E0,-1.852924168E-1,3.922445405E0
4.497324000E0,-2.698929734E0,2.163787003E0,-1.417604810E-1,3.462122461E0
4.507253000E0,-2.597329684E0,1.765579922E0,-8.865310829E-2,3.141855077E0
4.517182000E0,-2.632578455E0,1.362542457E0,-9.044473171E-2,2.965665443E0
4.527111000E0,-2.957219376E0,7.939723635E-1,-1.449945760E-1,3.065381213E0
4.537041000E0,-3.488925406E0,1.609540029E-1,-1.542525091E-1,3.496040692E0
4.546970000E0,-3.968001233E0,-2.646052011E-1,1.239199956E-2,3.976833321E0
4.556899000E0,-4.534819794E0,-7.610814831E-1,1.749790978E-1,4.601570739E0
4.566828000E0,-5.214220060E0,-1.415025018E0,2.698840857E-2,5.402880251E0
4.576758000E0,-5.464634086E0,-2.031209866E0,-2.162124749E-1,5.833934098E0
4.586687000E0,-5.311134735E0,-2.511983725E0,-3.385877001E-1,5.884968653E0
4.596616000E0,-4.662582040E0,-2.896605969E0,-3.925072145E-1,5.503095432E0
4.606545000E0,-3.608623758E0,-3.156640712E0,-4.206428468E-1,4.812845979E0
4.616475000E0,-2.293201380E0,-3.065903035E0,-2.810393671E-1,3.838947397E0
4.626404000E0,-1.396456600E0,-2.938918760E0,-1.575613753E-1,3.257631057E0
4.636333000E0,-5.225545532E-1,-2.615736135E0,-9.151586853E-2,2.668991184E0
4.646262000E0,4.992341030E-1,-2.061315133E0,-1.001136875E-1,2.123270477E0
4.656192000E0,1.290008624E0,-1.634432138E0,-2.739724223E-1,2.100131318E0
4.666121000E0,1.907031963E0,-1.275463091E0,-7.006073861E-1,2.398838826E0
4.676050000E0,2.462019267E0,-9.937880945E-1,-1.395259091E0,2.999316852E0
4.685979000E0,3.020638277E0,-8.790379491E-1,-2.304549072E0,3.899732009E0
4.695909000E0,3.670002565E0,-1.061573111E0,-3.552109834E0,5.216640736E0
4.705838000E0,4.273485507E0,-1.772188153E0,-5.135229439E0,6.911867375E0
4.715767000E0,4.690834032E0,-3.054103062E0,-7.338198341E0,9.229334988E0
4.725697000E0,4.933934947E0,-4.461154232E0,-8.831212353E0,1.105603558E1
4.735626000E0,4.664128044E0,-5.438059661E0,-8.213664519E0,1.089912236E1
4.745555000E0,3.849494544E0,-6.067582592E0,-7.090772241E0,1.009520766E1
4.755484000E0,2.821363413E0,-6.217715117E0,-6.085833507E0,9.146444241E0
4.765414000E0,1.936284413E0,-5.484859021E0,-4.698788584E0,7.477398610E0
4.775343000E0,1.754595636E0,-4.126361082E0,-3.067187376E0,5.432596067E0
4.785272000E0,2.171475799E0,-2.920747368E0,-1.501158013E0,3.936946497E0
4.795201000E0,2.411499324E0,-1.882138027E0,-4.822736692E-1,3.096830708E0
4.805131000E0,2.286928487E0,-8.666389284E-1,-1.505224606E-1,2.450257527E0
4.815060000E0,1.769424174E0,-4.071092835E-2,-1.106187221E-1,1.773345931E0
4.824989000E0,1.042089019E0,4.740294241E-1,-1.302325492E-1,1.152221305E0
4.834918000E0,4.302270180E-1,9.427220213E-1,7.397667009E-2,1.038890102E0
4.844848000E0,1.712479895E-1,1.372940561E0,7.144432139E-1,1.557151490E0
4.854777125E0,2.269245923E-1,1.741857476E0,1.726338966E0,2.462886206E0
4.864706125E0,6.630298162E-1,2.065620731E0,2.993800142E0,3.697193101E0
4.874635125E0,1.303335013E0,2.706045503E0,4.179442983E0,5.146757044E0
4.884565125E0,1.659950264E0,3.324844934E0,4.986012588E0,6.218548886E0
4.894494125E0,1.988135768E0,3.929415165E0,5.489001188E0,7.037195565E0
4.904423125E0,2.459238916E0,4.987008369E0,5.405431613E0,7.754792031E0
4.914352125E0,2.642763135E0,6.066800235E0,4.903055801E0,8.235910287E0
4.924282125E0,2.230077179E0,6.506103301E0,4.073484711E0,7.993491232E0
4.934211125E0,1.140278973E0,6.216980706E0,2.758387147E0,6.896360264E0
4.944140125E0,-5.539067388E-1,5.559915050E0,1.493497576E0,5.783597760E0
4.954069125E0,-1.927420619E0,4.403895665E0,7.564664219E-1,4.866362987E0
4.963999125E0,-2.080657430E0,3.262152257E0,5.509579879E-1,3.908238400E0
4.973928125E0,-1.988961394E0,2.049993754E0,5.109826210E-1,2.901645233E0
4.983857125E0,-2.168108972E0,9.794416586E-1,4.695026194E-1,2.424960863E0
4.993787125E0,-2.420356686E0,3.434060982E-1,6.213853616E-1,2.522335030E0
5.003716125E0,-2.298929898E0,-9.932632338E-2,6.943426792E-1,2.403550738E0
5.013645125E0,-2.553791317E0,-6.008464319E-1,1.487350398E-1,2.627734506E0
5.023574125E0,-3.081323020E0,-9.430193523E-1,-3.453774869E-1,3.240852150E0
5.033504125E0,-3.751692261E0,-1.351695288E0,-6.623999248E-1,4.042406292E0
5.043433125E0,-4.181021147E0,-1.790677049E0,-8.664010929E-1,4.630130989E0
5.053362125E0,-4.337617768E0,-2.124097565E0,-6.314381871E-1,4.870875953E0
5.063291125E0,-4.122793404E0,-2.360854543E0,-9.230473101E-2,4.751797532E0
5.073221125E0,-3.848194124E0,-2.350942635E0,2.435590437E-1,4.516065798E0
5.083150125E0,-3.754414725E0,-2.240879033E0,4.954866225E-1,4.400304053E0
5.093079125E0,-3.663098758E0,-2.113933057E0,4.021600905E-1,4.248380659E0
5.103008125E0,-3.464581693E0,-1.897539593E0,6.903719813E-2,3.950790927E0
5.112938125E0,-3.507980897E0,-1.756649470E0,-5.305121751E-1,3.958938053E0
5.122867125E0,-3.192575068E0,-1.524435486E0,-9.966605392E-1,3.675564086E0
5.132796125E0,-2.626509629E0,-1.252817409E0,-1.413518776E0,3.235141361E0
5.142725125E0,-2.285823948E0,-1.053398119E0,-1.725530881E0,3.051572634E0
5.152655125E0,-1.943441405E0,-8.149492496E-1,-2.011556936E0,2.913325949E0
5.162584125E0,-1.385338705E0,-2.798915952E-1,-2.350441529E0,2.742640700E0
5.172513125E0,-6.018246710E-1,1.603932915E-1,-2.468856709E0,2.546207452E0
5.182442125E0,-2.270140547E-1,4.679591371E-1,-2.412355356E0,2.467788382E0
5.192372125E0,-2.433295405E-1,8.265686173E-1,-2.323606463E0,2.478219510E0
5.202301125E0,-3.577232981E-1,1.210378025E0,-2.135258730E0,2.480385205E0
5.212230125E0,-4.512892735E-1,1.601086929E0,-1.857526512E0,2.493500773E0
5.222159125E0,3.051427960E-2,2.012971231E0,-1.520754957E0,2.523029912E0
5.232089125E0,1.249290953E0,2.220931841E0,-1.473548046E0,2.943570956E0
5.242018125E0,2.764341951E0,2.301419934E0,-1.829172778E0,4.035343008E0
5.251947125E0,4.004480258E0,2.518048165E0,-1.991020199E0,5.132308460E0
5.261877125E0,4.603417574E0,2.623918436E0,-2.374996326E0,5.806634900E0
5.271806125E0,4.734940749E0,2.268419419E0,-2.960734137E0,6.027548191E0
5.281735125E0,3.997548968E0,1.685418689E0,-3.452344640E0,5.544341027E0
5.291664125E0,3.048655795E0,1.219830634E0,-3.773846776E0,5.002420257E0
5.301594125E0,2.787353083E0,9.778264383E-1,-3.793502777E0,4.807925236E0
5.311523125E0,3.073471963E0,1.049856241E0,-3.192897250E0,4.554450668E0
5.321452125E0,3.913222178E0,1.219022549E0,-1.981619046E0,4.552596823E0
5.331381125E0,4.131437343E0,7.707451764E-1,-8.205678391E-1,4.282073589E0
5.341311125E0,3.879080286E0,2.738420659E-1,1.315611827E-1,3.890958968E0
5.351240125E0,3.699212331E0,-1.648756208E-1,7.580978682E-1,3.779691551E0
5.361169125E0,3.430669012E0,-2.528388673E-1,1.511058519E0,3.757221741E0
5.371098125E0,3.270906708E0,-7.551733833E-2,1.959425354E0,3.813644095E0
5.381028125E0,2.711613514E0,-4.620732933E-2,2.015528219E0,3.378955011E0
5.390957125E0,1.772392806E0,-4.545558205E-1,1.462051835E0,2.342134245E0
5.400886125E0,1.348992412E0,-1.111367708E0,6.526398987E-1,1.865705643E0
5.410815125E0,1.212845843E0,-2.011498610E0,8.399583757E-2,2.350356781E0
5.420745125E0,8.306525320E-1,-2.904016438E0,-2.993897206E-1,3.035280762E0
5.430674125E0,7.881537992E-1,-3.526293207E0,-2.219942200E-1,3.620112102E0
5.440603125E0,1.059176338E0,-3.900011564E0,3.698679650E-1,4.058170404E0
5.450532125E0,9.630814415E-1,-4.015102310E0,1.351734756E0,4.344624181E0
5.460462125E0,6.895726669E-1,-3.582791929E0,2.069179931E0,4.194450387E0
5.470391125E0,5.321393090E-1,-2.598955795E0,2.630938311E0,3.736252115E0
5.480320125E0,3.733844805E-1,-1.373083964E0,3.348871143E0,3.638641707E0
5.490250125E0,7.285162926E-2,-1.825984584E-1,4.016268829E0,4.021077575E0
5.500179125E0,-1.780044472E-1,1.128713765E0,4.414685240E0,4.560167334E0
5.510108125E0,-7.624318975E-1,2.274317505E0,4.336684552E0,4.955870803E0
5.520037125E0,-1.653258126E0,3.313928182E0,4.215760040E0,5.611418282E0
5.529967125E0,-2.739485437E0,3.860264531E0,3.269646049E0,5.752999912E0
5.539896125E0,-3.275686222E0,4.038666004E0,1.889776829E0,5.532829275E0
5.549825125E0,-3.702761591E0,3.973754309E0,8.799626863E-1,5.502317788E0
5.559754125E0,-3.720729500E0,3.660838809E0,4.869447906E-2,5.219955934E0
5.569684125E0,-3.812356539E0,3.034676565E0,-4.936581981E-1,4.897654811E0
5.579613125E0,-3.274433749E0,2.661649641E0,-5.424368040E-1,4.254472103E0
5.589542125E0,-3.035056926E0,2.386730811E0,4.910959482E-2,3.861407290E0
5.599471125E0,-3.948645780E0,2.007574251E0,7.094590473E-1,4.486144225E0
5.609401125E0,-4.699475632E0,1.297425963E0,1.173861871E0,5.014612352E0
5.619330125E0,-5.050208584E0,7.901529622E-1,1.648245308E0,5.370815677E0
5.629259125E0,-5.884341964E0,9.299568187E-1,2.237668619E0,6.363761535E0
5.639188125E0,-5.994612849E0,8.021844855E-1,2.440395094E0,6.521841103E0
5.649118125E0,-4.883374073E0,1.704147613E-1,1.934534926E0,5.255360017E0
5.659047125E0,-3.532909917E0,-4.767585754E-1,1.204869071E0,3.763038758E0
5.668976125E0,-2.462173049E0,-5.472622553E-1,6.039553964E-1,2.593560144E0
5.678906125E0,-1.332622547E0,-2.198659797E-1,3.673107583E-2,1.351137696E0
5.688835125E0,-2.484072626E-2,5.557091430E-2,-1.013078059E0,1.014905090E0
5.698764125E0,8.902754205E-1,2.963047296E-2,-2.017494053E0,2.205391245E0
5.708693125E0,1.065328778E0,-3.159411415E-1,-2.562622951E0,2.793166769E0
5.718623125E0,7.936583680E-1,-1.143642584E0,-2.768318642E0,3.098612604E0
5.728552125E0,1.933732688E-1,-1.831546017E0,-2.635735366E0,3.215440087E0
5.738481125E0,1.065362692E-2,-2.107275418E0,-2.462825013E0,3.241331552E0
5.748410125E0,-1.513949382E-1,-2.324173643E0,-2.333049570E0,3.296638265E0
5.758340125E0,-2.567372060E-1,-2.317844909E0,-2.237027911E0,3.231503193E0
5.768269125E0,-2.909808397E-1,-2.142584560E0,-1.924103640E0,2.894393419E0
5.778198125E0,3.161425781E-1,-1.937672104E0,-1.619592343E0,2.545112703E0
5.788127125E0,1.746874387E0,-9.942313135E-1,-7.645339715E-1,2.150483253E0
5.798057125E0,2.547411420E0,1.547995526E0,-2.403337196E-2,2.980968415E0
5.807986125E0,2.943266750E0,5.930221264E-1,-2.070921524E-1,3.009548399E0
5.817915125E0,1.991556973E0,-1.321558738E0,-8.390941572E-1,2.533159229E0
5.827844125E0,1.780866591E0,-2.711201286E0,-1.503760024E0,3.575387033E0
5.837774125E0,2.853450594E0,-3.135993317E0,-2.255325895E0,4.802408694E0
5.847703125E0,3.486704634E0,-3.198387786E0,-2.801952996E0,5.498884816E0
5.857631375E0,3.941629121E0,-3.037757755E0,-3.345815388E0,5.996573431E0
5.867560375E0,3.888931675E0,-2.747565705E0,-3.701972802E0,6.031377081E0
5.877490375E0,3.991190121E0,-2.262613718E0,-3.892666876E0,6.016799384E0
5.887419375E0,4.109645939E0,-1.544464100E0,-3.878336520E0,5.857990549E0
5.897348375E0,3.380296419E0,-6.384979691E-1,-3.228983341E0,4.718094632E0
5.907277375E0,2.650675002E0,-4.125409448E-1,-2.553305705E0,3.703462977E0
5.917207375E0,2.294747969E0,-7.492899880E-2,-1.313081006E0,2.644931819E0
5.927136375E0,1.962398663E0,1.033194966E0,5.711760516E-1,2.290140265E0
5.937065375E0,1.791644179E0,1.832875235E0,2.158305531E0,3.350776515E0
5.946995375E0,9.769937217E-1,3.580946547E0,5.408459301E0,6.559659055E0
5.956924375E0,2.246242391E0,3.571583986E0,4.197881301E0,5.951808504E0
5.966853375E0,1.929238518E0,3.023050546E0,4.275378835E0,5.580292111E0
5.976782375E0,7.091965073E-1,2.608087977E0,3.455336076E0,4.386847385E0
5.986712375E0,1.648330092E-3,1.984778443E0,1.853078388E0,2.715372478E0
5.996641375E0,-3.282778895E-1,1.596508851E0,8.559063640E-1,1.840973272E0
6.006570375E0,-4.771795750E-2,1.555645585E0,2.856750762E-1,1.582378096E0
6.016499375E0,7.784345573E-1,1.159725789E0,8.292813599E-4,1.396755152E0
6.026429375E0,9.555414569E-1,8.522002526E-1,2.159120925E-1,1.298430891E0
6.036358375E0,-2.644906139E-1,7.225082785E-1,3.683243001E-1,8.530159948E-1
6.046287375E0,-1.034071317E0,3.032102182E-1,2.393806234E-1,1.103876356E0
6.056216375E0,-1.109692188E0,-2.279460277E-1,4.576161070E-1,1.221797301E0
6.066146375E0,-8.897836697E-1,-5.204130104E-1,5.932456362E-1,1.189321262E0
6.076075375E0,-1.304782199E0,-7.626350152E-1,7.489501186E-1,1.686711307E0
6.086004375E0,-2.385488570E0,-1.161740886E0,1.852118422E0,3.235821418E0
6.095933375E0,-3.233676901E0,-1.122865088E0,2.964890338E0,4.528583335E0
6.105863375E0,-2.680253143E0,-2.226100780E-1,2.246251016E0,3.504134099E0
6.115792375E0,-2.477560582E0,5.303585395E-1,1.762044404E0,3.086160575E0
6.125721375E0,-2.953432719E0,6.883163926E-1,4.360865128E-1,3.063774752E0
6.135651375E0,-3.373309581E0,8.258038015E-1,1.005032363E0,3.615419685E0
6.145580375E0,-3.747490452E0,7.197485389E-1,1.228369177E0,4.008816968E0
6.155509375E0,-3.636190456E0,4.783206591E-1,8.783944631E-1,3.771239653E0
6.165438375E0,-3.139855987E0,-6.862518869E-2,3.673198215E-1,3.162013423E0
6.175368375E0,-2.618311248E0,-4.825329202E-1,-4.659528478E-1,2.702869562E0
6.185297375E0,-2.727344279E0,-8.051975557E-1,-9.100442719E-1,2.985788086E0
6.195226375E0,-3.042171233E0,-1.098708705E0,-1.346217324E0,3.503465101E0
6.205155375E0,-3.166809897E0,-1.238053774E0,-1.867323521E0,3.879221469E0
6.215085375E0,-2.986140289E0,-1.374412305E0,-2.227675728E0,3.970967408E0
6.225014375E0,-2.486043137E0,-1.168447350E0,-2.295676507E0,3.579917641E0
6.234943375E0,-2.511389063E0,-3.279529305E-1,-1.706791578E0,3.054139100E0
6.244872375E0,-5.162311403E0,1.698397754E0,-1.153466345E-1,5.435744548E0
6.254802375E0,-2.709946473E0,3.963018236E0,2.217582118E-1,4.806089901E0
6.264731375E0,1.725171862E0,3.454294395E0,5.076771900E-3,3.861138885E0
6.274660375E0,1.403362747E0,2.083507217E0,-7.882700126E-1,2.632830974E0
6.284590375E0,1.139255126E0,7.002188386E-1,-1.350634164E0,1.900637080E0
6.294519375E0,1.033154474E0,-1.247554623E-1,-2.082482200E0,2.328025817E0
6.304448375E0,1.472639973E0,-7.281210208E-1,-2.004386642E0,2.591600764E0
6.314377375E0,2.129873444E0,-1.516572589E0,-1.587411607E0,3.058795338E0
6.324307375E0,2.857915528E0,-1.704760401E0,-1.174684575E0,3.528990371E0
6.334236375E0,3.779626164E0,-1.548043766E0,-4.949748449E-1,4.114245197E0
6.344165375E0,3.587537529E0,-9.124771522E-1,-3.584391434E-1,3.719074978E0
6.354094375E0,3.617867036E0,-1.509419983E-1,-7.824743255E-1,3.704593291E0
6.364024375E0,3.668841308E0,4.768426292E-1,-1.343495883E0,3.936083920E0
6.373953375E0,3.129392395E0,9.035931851E-1,-1.797980075E0,3.720525468E0
6.383882375E0,3.281201901E0,8.288987327E-1,-2.339757496E0,4.114343710E0
6.393811375E0,3.486601723E0,-1.164356053E-2,-2.957492441E0,4.572011448E0
6.403741375E0,2.843575816E0,-3.361296038E-1,-2.900300825E0,4.075616690E0
6.413670375E0,2.939405833E0,-2.746747094E-1,-2.293803059E0,3.738594030E0
6.423599375E0,2.592051403E0,4.222181233E-1,-8.620549306E-1,2.764079833E0
6.433528375E0,1.753882860E0,1.609763612E0,-4.241194551E-1,2.418123505E0
6.443458375E0,2.229246874E0,1.921239527E0,-6.341702986E-1,3.010460914E0
6.453387375E0,2.732676355E0,1.018873819E0,-3.029582763E-1,2.932133632E0
6.463316375E0,2.658602657E0,1.332019114E-1,1.145190049E0,2.897821783E0
6.473246375E0,2.311558714E0,7.772908419E-2,2.626625404E0,3.499786638E0
6.483175375E0,1.705480193E0,-1.148124182E-1,3.047958223E0,3.494552033E0
6.493104375E0,1.239989787E0,-3.086508331E-1,3.180404674E0,3.427508410E0
6.503033375E0,7.054630601E-1,-6.811842513E-1,2.507088436E0,2.692059163E0
6.512963375E0,1.735400981E-1,-1.504334513E0,1.573396854E0,2.183739031E0
6.522892375E0,-7.526688015E-1,-1.574588517E0,8.134951202E-1,1.925516459E0
6.532821375E0,-2.156011083E0,-6.645343047E-1,7.976947740E-1,2.392970243E0
6.542750375E0,-2.322083702E0,-7.021108514E-1,8.055416644E-1,2.556155265E0
6.552680375E0,-2.157164154E0,-1.186681892E0,1.065079614E0,2.682529717E0
6.562609375E0,-1.918614712E0,-1.010151235E0,1.686722910E0,2.747093393E0
6.572538375E0,-1.166687338E0,-6.240894064E-1,2.129043725E0,2.506685882E0
6.582467375E0,2.534943402E-2,-4.704941610E-1,2.727611496E0,2.768008639E0
6.592397375E0,7.742000037E-1,-5.725517553E-1,3.086241113E0,3.232968507E0
6.602326375E0,7.842835271E-1,-9.828543860E-1,3.031480769E0,3.281916978E0
6.612255375E0,8.815256470E-1,-1.266436451E0,2.501124861E0,2.938804914E0
6.622184375E0,6.269150734E-1,-1.118349868E0,2.021060854E0,2.393410937E0
6.632114375E0,-4.331096953E-1,-1.059478054E0,1.600798076E0,1.967900464E0
6.642043375E0,-2.122885437E0,-9.892673197E-1,6.676397610E-1,2.435371688E0
6.651972375E0,-3.264789351E0,-5.570779762E-1,-1.472106707E-1,3.315246048E0
6.661902375E0,-3.330077607E0,-2.265299052E-1,-9.084105599E-1,3.459182333E0
6.671831375E0,-2.997355834E0,-3.561266793E-1,-1.342197363E0,3.303401575E0
6.681760375E0,-3.429340525E0,4.156325139E-2,-1.003404572E0,3.573363216E0
6.691689375E0,-2.967381252E0,1.219792700E0,2.216314003E-2,3.208385409E0
6.701619375E0,-2.304568368E0,2.073036169E0,9.235155259E-1,3.234408021E0
6.711548375E0,-2.098317191E0,2.135545244E0,1.047555289E0,3.171885970E0
6.721477375E0,-1.577771741E0,1.620913668E0,3.225520036E-1,2.284899249E0
6.731406375E0,-1.198587992E0,7.755822855E-1,-5.870654216E-1,1.543627826E0
6.741336375E0,-2.157181696E0,2.272828073E-1,-7.828799030E-1,2.306077034E0
6.751265375E0,-2.258504003E0,4.010713755E-1,-7.986473586E-1,2.428896083E0
6.761194375E0,-1.803003564E0,9.776924640E-1,-1.939142679E0,2.822583699E0
6.771123375E0,-2.551812619E0,1.734018114E0,-3.764352652E0,4.867126191E0
6.781053375E0,-2.330006679E0,2.304849034E0,-4.735992664E0,5.759417219E0
6.790982375E0,-1.694175771E0,2.610366637E0,-4.782330678E0,5.705692967E0
6.800911375E0,-5.397096992E-1,2.370442222E0,-4.561294232E0,5.168722082E0
6.810841375E0,-6.428545833E-2,1.146322655E0,-4.913367950E0,5.045728180E0
6.820770375E0,5.288227683E-1,5.797771597E-1,-4.628580481E0,4.694630161E0
6.830699375E0,5.562041098E-1,5.977842450E-1,-3.276058690E0,3.376280432E0
6.840628375E0,-8.297479677E-1,-7.810474953E-2,-2.718604445E0,2.843482402E0
6.850558375E0,-4.905743766E-1,-7.879821834E-1,-2.579283423E0,2.741219093E0
6.860488125E0,5.968276405E-1,-1.017853772E0,-2.365138505E0,2.643124984E0
6.870417125E0,1.794573634E0,-9.803842297E-1,-1.095570724E0,2.319897191E0
6.880346125E0,2.058444443E0,-8.703750068E-1,1.971868229E-1,2.243575009E0
6.890276125E0,9.108266294E-1,2.634700555E-2,8.205969290E-1,1.226245748E0
6.900205125E0,1.699894348E0,8.359864352E-1,1.004111646E0,2.144004271E0
6.910134125E0,3.174364500E0,9.135225613E-1,7.272665964E-1,3.382311362E0
6.920063125E0,3.600210199E0,6.581205670E-1,1.024913262E0,3.800668804E0
6.929993125E0,2.733183308E0,3.035328383E-1,1.627531400E0,3.195509606E0
6.939922125E0,1.768731864E0,-2.941962236E-1,1.585876567E0,2.393735221E0
6.949851125E0,1.658514773E0,-1.011229681E0,7.482744728E-1,2.081627105E0
6.959781125E0,1.630846918E0,-1.616194818E0,-1.398113117E-1,2.300281409E0
6.969710125E0,2.013112734E0,-2.214813315E0,-8.528362834E-1,3.112129597E0
6.979639125E0,2.704764086E0,-2.581968757E0,-9.433880192E-1,3.856461121E0
6.989568125E0,2.445021411E0,-1.918013472E0,-5.402730784E-1,3.154171901E0
6.999498125E0,1.781232626E0,-1.053603868E0,-3.247341844E-1,2.094832468E0
7.009427125E0,1.658003141E0,-8.303811481E-1,-5.549319018E-1,1.935576576E0
7.019356125E0,2.031313362E0,-1.081900299E0,-1.046288782E0,2.528134183E0
7.029285125E0,2.214980838E0,-9.975650304E-1,-1.034368502E0,2.640301933E0
7.039215125E0,2.328961782E0,-7.191758772E-1,-2.746637459E-1,2.452899732E0
7.049144125E0,2.546105152E0,-3.488369190E-1,1.126307344E0,2.805870074E0
7.059073125E0,2.321397239E0,1.539656666E-1,2.584005634E0,3.477021094E0
7.069002125E0,1.867714700E0,5.413347135E-1,3.401111629E0,3.917775107E0
7.078932125E0,1.251946174E0,7.841168815E-1,3.221192511E0,3.543767727E0
7.088861125E0,9.880034441E-1,1.120488560E0,2.860355279E0,3.226961069E0
7.098790125E0,5.557386714E-1,1.334627850E0,2.440687747E0,2.836729393E0
7.108720125E0,-5.849086761E-2,1.598921413E0,1.985919088E0,2.550263808E0
7.118649125E0,-3.679231811E-1,1.516044732E0,1.638631901E0,2.262492785E0
7.128578125E0,-1.030940718E0,1.012497723E0,1.288902039E0,1.936300304E0
7.138507125E0,-1.728442794E0,6.278143752E-1,8.332103965E-1,2.018887056E0
7.148437125E0,-2.323459552E0,8.591311035E-1,7.749437696E-1,2.595594034E0
7.158366125E0,-2.512405894E0,1.244156221E0,5.119383484E-1,2.849945429E0
7.168295125E0,-2.949439656E0,1.615744437E0,6.494125280E-1,3.425136639E0
7.178224125E0,-3.123207210E0,1.787347937E0,4.152031821E-1,3.622351392E0
7.188154125E0,-2.994146297E0,1.907214396E0,2.739935088E-1,3.560540864E0
7.198083125E0,-4.418595273E0,3.379891791E0,1.055885525E0,5.662379972E0
7.208012125E0,-2.086638547E0,2.904616655E0,8.482266310E-1,3.675642359E0
7.217941125E0,-1.302717547E0,1.625379186E0,4.694270441E-1,2.135249929E0
7.227871125E0,-1.630600750E0,1.191914638E0,5.551285145E-1,2.094680639E0
7.237800125E0,-7.553316236E-2,1.528585255E0,1.764578587E-1,1.540589341E0
7.247729125E0,-8.356448847E-1,1.549301941E0,1.827567717E-1,1.769756739E0
7.257659125E0,-2.988206695E0,7.543487797E-1,2.431129012E-1,3.091524740E0
7.267588125E0,-3.193094886E0,9.853008610E-1,1.144457978E-1,3.343616392E0
7.277517125E0,-3.052964609E0,1.766642654E0,3.711987913E-2,3.527463260E0
7.287446125E0,-3.319996423E0,1.878112804E0,-9.680650234E-2,3.815633034E0
7.297376125E0,-3.604817221E0,1.366849224E0,-1.284887633E-1,3.857394633E0
7.307305125E0,-3.749482014E0,1.118588434E0,-2.446615362E-1,3.920422773E0
7.317234125E0,-3.986090180E0,1.422789536E0,-3.844883430E-1,4.249832499E0
7.327163125E0,-2.825878633E0,1.199832572E0,-7.794332618E-1,3.167444468E0
7.337093125E0,8.600137407E-1,-7.514891258E-1,-1.699961591E0,2.047981678E0
7.347022125E0,9.701337683E-1,-1.136703620E0,-2.100383305E0,2.577763502E0
7.356951125E0,-7.109173429E-1,-6.801747295E-1,-1.720236227E0,1.981730004E0
7.366880125E0,-2.183675430E0,-4.181346837E-1,-3.675857967E-1,2.253529302E0
7.376810125E0,-6.934955639E-1,-9.969447139E-1,-1.053358943E0,1.607606893E0
7.386739125E0,-1.216111513E0,-1.350900943E0,-1.439461702E0,2.318600992E0
7.396668125E0,-1.740714346E0,-1.022662230E0,-1.370715695E0,2.440243018E0
7.406598125E0,-1.183237882E0,-8.179186119E-1,-2.086751106E0,2.534476853E0
7.416527125E0,-8.777629638E-1,-6.777747399E-1,-2.763680923E0,2.977881573E0
7.426456125E0,5.642563105E-2,-7.152663557E-1,-3.053061672E0,3.136235863E0
7.436385125E0,7.814704317E-1,-6.409513146E-1,-3.066797951E0,3.229050061E0
7.446315125E0,1.439707285E0,-2.661349972E-1,-2.669542505E0,3.044674382E0
7.456244125E0,1.932192532E0,1.286913693E-2,-2.185578406E0,2.917239545E0
7.466173125E0,2.878294829E0,3.705519430E-1,-1.748902494E0,3.388296002E0
7.476102125E0,3.911369780E0,5.215921015E-1,-1.689860526E0,4.292609984E0
7.486032125E0,4.748323857E0,5.671594530E-1,-1.550894430E0,5.027277874E0
7.495961125E0,5.162220186E0,5.763740802E-1,-1.379887345E0,5.374459360E0
7.505890125E0,4.980940713E0,5.732667236E-1,-1.125093754E0,5.138505725E0
7.515819125E0,4.729382971E0,3.640751284E-1,-9.934270290E-1,4.846288399E0
7.525749125E0,4.514755073E0,1.799242343E-1,-8.305901130E-1,4.594046804E0
7.535678125E0,4.020919704E0,1.867527589E-1,-5.313668919E-1,4.060175198E0
7.545607125E0,3.382739385E0,2.980431068E-1,-1.597646427E-1,3.399600004E0
7.555537125E0,3.399312733E0,3.952163757E-1,4.604487906E-1,3.453047369E0
7.565466125E0,3.588916302E0,5.712501651E-1,1.125755074E0,3.804467303E0
7.575395125E0,3.159136596E0,8.992938736E-1,1.953791562E0,3.821802582E0
7.585324125E0,2.458366511E0,1.045163266E0,2.584955807E0,3.717247460E0
7.595254125E0,2.117834027E0,1.041526517E0,3.012837507E0,3.827164524E0
7.605183125E0,1.953468211E0,1.049639821E0,3.083867728E0,3.798423616E0
7.615112125E0,1.384753398E0,8.434000468E-1,3.127278627E0,3.522603756E0
7.625041125E0,5.971083069E-1,3.464443114E-1,3.044047020E0,3.121343341E0
7.634971125E0,-2.661360204E-2,-3.841418224E-1,2.505120848E0,2.534542106E0
7.644900125E0,-6.306912053E-1,-1.022978857E0,1.628956513E0,2.024291594E0
7.654829125E0,-1.011871194E0,-1.595609257E0,6.665993951E-1,2.003548594E0
7.664758125E0,-1.136204633E0,-1.488094164E0,1.324148762E-1,1.876944035E0
7.674688125E0,-1.433522685E0,-7.673035052E-1,2.567839837E-1,1.646110559E0
7.684617125E0,-1.787123111E0,-2.122944932E-2,6.159280090E-1,1.890403930E0
7.694546125E0,-2.218526005E0,9.174483088E-1,1.244756438E0,2.704253616E0
7.704476125E0,-2.186006715E0,1.714979580E0,1.861999047E0,3.344670502E0
7.714405125E0,-1.704767418E0,2.087950370E0,1.872442174E0,3.282043326E0
7.724334125E0,-1.096137173E0,2.204342998E0,1.673643858E0,2.976865553E0
7.734263125E0,-7.406276304E-1,2.390045305E0,1.464760412E0,2.899373882E0
7.744193125E0,1.159274822E-1,1.918274112E0,1.302319937E0,2.321476248E0
7.754122125E0,4.791155881E-1,1.405996917E0,8.702656639E-1,1.721552034E0
7.764051125E0,1.778284460E-1,9.921058506E-1,5.299430948E-1,1.138743456E0
7.773980125E0,1.571394183E0,-1.003801744E0,1.051960362E0,2.140915277E0
7.783910125E0,2.324677527E-2,-6.422783402E-1,1.892085895E0,1.998261973E0
7.793839125E0,-1.604283602E0,5.017129570E-1,1.615726456E0,2.331526056E0
7.803768125E0,-3.428534194E0,2.015989856E0,1.172863752E0,4.146645777E0
7.813698125E0,-6.384489402E0,2.638891986E0,1.886847959E0,7.161400076E0
7.823627125E0,-4.535018014E0,1.386811326E0,1.114624753E-1,4.743633410E0
7.833556125E0,-2.454393328E0,-2.338547122E-1,-1.503620861E0,2.887838349E0
7.843485125E0,-3.130492256E0,-4.519181781E-1,-1.342762789E0,3.436164099E0
7.853415250E0,-2.290984701E0,8.132950723E-2,-7.553468263E-1,2.413664065E0
7.863344250E0,-2.191559231E0,4.285979837E-1,-2.362321901E-1,2.245536404E0
7.873273250E0,-2.796867673E0,1.231622056E-1,-7.929379910E-1,2.909705890E0
7.883202250E0,-2.798374500E0,7.151901226E-2,-1.557830397E0,3.203568379E0
7.893132250E0,-2.349396631E0,1.492942895E-1,-1.706532692E0,2.907611932E0
7.903061250E0,-1.859345580E0,-2.197153408E-2,-1.118004590E0,2.169696522E0
7.912990250E0,-1.546191514E0,-5.060257170E-1,-6.024907420E-1,1.734867522E0
7.922919250E0,-8.478345752E-1,-1.034716192E0,-5.357487587E-1,1.441002359E0
7.932849250E0,1.841147876E-1,-1.486613503E0,-5.435922503E-1,1.593552791E0
7.942778250E0,2.959650064E-1,-1.545281687E0,-5.935005748E-1,1.681586665E0
7.952707250E0,1.022204393E-1,-1.056058529E0,-6.485684824E-1,1.243523105E0
7.962636250E0,-3.037763017E-1,-8.496706009E-2,-5.778814924E-1,6.583665104E-1
7.972566250E0,-2.845740455E-1,3.185506808E-1,-1.603388393E-1,4.562515392E-1
7.982495250E0,-3.329778814E-1,-5.272046976E-2,-4.030718724E-2,3.395267100E-1
7.992424250E0,-2.701653367E-1,-5.955387680E-1,5.770967960E-2,6.564953469E-1
8.002354250E0,-5.067805195E-1,-8.700485860E-1,2.999270980E-1,1.050603303E0
8.012283250E0,-4.546631169E-1,-5.774953569E-1,3.878294420E-1,8.310421850E-1
8.022212250E0,6.335294437E-1,-6.093400973E-1,7.041798156E-2,8.818240201E-1
8.032141250E0,1.307012912E0,-1.783677055E-1,1.404037077E-2,1.319202381E0
8.042071250E0,1.745599110E0,2.803956252E-1,-3.937936385E-1,1.811301021E0
8.052000250E0,2.277529088E0,8.795710690E-1,-1.210221612E0,2.724962452E0
8.061929250E0,3.235771959E0,1.299391066E0,-1.914391268E0,3.977880245E0
8.071858250E0,3.725161105E0,1.598497782E0,-2.412384592E0,4.717162265E0
8.081788250E0,3.452413638E0,1.735822126E0,-2.874077232E0,4.815865272E0
8.091717250E0,2.625751246E0,1.531834407E0,-3.337760264E0,4.514612922E0
8.101646250E0,1.550136046E0,9.876405513E-1,-3.321896768E0,3.796492296E0
8.111576250E0,9.474524188E-1,2.689328898E-1,-2.369828557E0,2.566335593E0
8.121505250E0,1.296319524E0,-4.319289232E-1,-4.002676392E-1,1.423805143E0
8.131434250E0,2.068099950E0,-4.552980515E-1,1.854804633E0,2.815072636E0
8.141363250E0,2.404463954E0,5.136130641E-1,3.443875533E0,4.231491932E0
8.151293250E0,1.934405703E0,2.069434577E0,4.141771712E0,5.017843940E0
8.161222250E0,1.222493164E0,2.079382006E0,3.761781632E0,4.468704522E0
8.171151250E0,3.211483794E-1,1.602372439E0,3.851648074E0,4.184008437E0
8.181080250E0,-5.981017488E-1,9.833766154E-1,4.137323150E0,4.294438044E0
8.191010250E0,-8.109561861E-1,9.691557484E-1,2.883532764E0,3.148281119E0
8.200939250E0,-6.724017334E-1,1.373902135E0,1.853943338E0,2.403505163E0
8.210868250E0,-4.214415765E-1,1.486472439E0,1.839517672E0,2.402298603E0
8.220798250E0,1.768461138E-1,1.624012838E0,1.484217460E0,2.207168710E0
8.230727250E0,7.527898389E-1,1.442210771E0,9.936126781E-1,1.906287125E0
8.240656250E0,6.109749788E-1,1.213969020E0,2.375219397E-1,1.379647737E0
8.250585250E0,4.234728992E-1,1.214744872E0,-5.805912383E-1,1.411389594E0
8.260515250E0,4.904188406E-1,1.340155515E0,-1.417464915E0,2.011401061E0
8.270444250E0,5.818154991E-1,1.417059557E0,-2.145749220E0,2.636438275E0
8.280373250E0,5.065554017E-1,1.089722923E0,-2.132525741E0,2.447807276E0
8.290302250E0,5.874808663E-1,5.721138719E-1,-7.465521754E-1,1.108958160E0
8.300232250E0,-3.021460980E-1,-5.448961063E-1,-2.264867820E-1,6.629481832E-1
8.310161250E0,-4.787109607E-1,-1.492528985E0,1.666794138E-1,1.576257905E0
8.320090250E0,2.000355864E-1,-2.064565893E0,7.427092391E-1,2.203193949E0
8.330019250E0,3.802111048E-1,-2.824982840E0,1.242959003E0,3.109668087E0
8.339949250E0,6.089758158E-2,-3.022038977E0,2.003766837E0,3.626501018E0
8.349878250E0,-2.664967936E-1,-2.738358386E0,2.170258847E0,3.504233248E0
8.359807250E0,-3.351729262E-1,-2.404412060E0,2.122491919E0,3.224672106E0
8.369737250E0,-6.148212773E-1,-1.917474505E0,2.349966588E0,3.094681995E0
8.379666250E0,-1.108711610E0,-1.277498652E0,2.392605801E0,2.930154733E0
8.389595250E0,-1.287486135E0,-5.861757312E-1,1.803806680E0,2.292365825E0
8.399524250E0,-1.129345849E0,-2.325192447E-1,9.884644970E-1,1.518732797E0
8.409454250E0,-7.583031785E-1,-2.177696798E-1,2.192507064E-1,8.188517670E-1
8.419383250E0,-7.553550124E-1,-4.948542461E-2,-6.828931001E-1,1.019486630E0
8.429312250E0,-7.873965847E-1,7.399541773E-2,-1.961206708E0,2.114663202E0
8.439241250E0,-9.100004178E-1,1.821402194E-1,-5.644468127E0,5.720253164E0
8.449171250E0,-5.675260735E-1,8.974544857E-1,-8.804879417E0,8.868675884E0
8.459100250E0,6.054019976E-1,1.863194656E0,-7.119530017E0,7.384152868E0
8.469029250E0,1.390563776E0,2.692857985E0,-5.508258993E0,6.286976132E0
8.478959250E0,1.878003461E0,2.968500409E0,-5.042999552E0,6.145790117E0
8.488888250E0,2.357169920E0,2.075492292E0,-4.201295782E0,5.245455608E0
8.498817250E0,2.863165158E0,3.370745504E-1,-3.216048131E0,4.319062347E0
8.508746250E0,3.088791668E0,-1.238226998E0,-2.394786812E0,4.099859015E0
8.518676250E0,2.319056014E0,-1.179025255E0,-1.951655281E0,3.252242255E0
8.528605250E0,6.391597277E-1,5.842529840E-1,-2.695617871E0,2.831295183E0
8.538534250E0,5.186562145E-1,2.582065236E0,-2.191821186E0,3.426389537E0
8.548463250E0,1.809072390E0,3.150911610E0,-2.049305829E-1,3.639091017E0
8.558393250E0,1.984657259E0,2.950984198E0,1.864837870E-1,3.561172331E0
8.568322250E0,2.244784681E0,2.884904521E0,-7.977449870E-1,3.741407412E0
8.578251250E0,2.941453528E0,2.699152221E0,-4.619212657E-1,4.018823562E0
8.588181250E0,2.676768202E0,1.882193283E0,-2.768504584E-1,3.283958852E0
8.598110250E0,1.223967832E0,-6.763764513E-1,-4.832899153E-2,1.399256248E0
8.608039250E0,-6.461272699E-1,-4.223725117E0,-5.791439062E-1,4.311930191E0
8.617968250E0,-8.006890601E-1,-3.129048871E0,-7.162885952E-1,3.308340847E0
8.627898250E0,-4.662148762E-1,2.892518181E-1,-6.607710367E-1,8.588604590E-1
8.637827250E0,-3.823412454E-1,1.648635609E0,-1.675593905E0,2.381553933E0
8.647756250E0,4.292242205E-1,8.320602491E-1,-1.932868470E0,2.147682056E0
8.657685250E0,2.602525520E-1,8.411172938E-1,-2.170806293E0,2.342564760E0
8.667615250E0,-8.282154125E-1,1.081704198E0,-2.461397708E0,2.813272724E0
8.677544250E0,-1.403634642E0,5.672051344E-1,-2.789875572E0,3.174164076E0
8.687473250E0,-2.154697214E0,-5.197424810E-1,-3.405143577E0,4.062985984E0
8.697403250E0,-2.717569488E0,-1.625695959E0,-3.966671576E0,5.075682680E0
8.707332250E0,-3.777555665E0,-2.534824119E0,-3.808699690E0,5.933081278E0
8.717261250E0,-5.189061245E0,-2.624552859E0,-2.638583545E0,6.385668127E0
8.727190250E0,-5.633194696E0,-7.707320932E-1,-9.814943236E-1,5.769769627E0
8.737120250E0,-3.259443827E0,8.292680575E-1,-1.683968872E-1,3.367494184E0
8.747049250E0,-1.233073993E0,1.052239640E0,2.023528379E-1,1.633593096E0
8.756978250E0,-5.833290508E-1,1.334343090E0,1.422177333E-1,1.463205436E0
8.766907250E0,-4.047118154E-1,1.862249161E0,8.345011693E-1,2.080422023E0
8.776837250E0,4.356087953E-1,2.203623352E0,7.565624624E-1,2.370252658E0
8.786766250E0,3.891783947E-1,1.978663132E0,1.422976647E0,2.468082282E0
8.796695250E0,6.440032688E-1,1.294066007E0,2.057483745E0,2.514475373E0
8.806625250E0,1.288797666E0,1.274348904E0,1.482011890E0,2.341222714E0
8.816554250E0,2.090737738E0,1.797193625E0,7.836572903E-1,2.866218408E0
8.826483250E0,3.013071980E0,2.098930710E0,6.527170819E-1,3.729631680E0
8.836412250E0,3.164437097E0,2.005981762E0,2.402164829E-1,3.754374639E0
8.846342250E0,2.800343258E0,1.530552844E0,1.050111399E0,3.359650029E0
8.856270500E0,2.278672219E0,1.183289337E0,1.351241251E0,2.901443375E0
8.866199500E0,1.551548733E0,8.541253021E-1,1.060595457E0,2.064387615E0
8.876128500E0,9.221252042E-1,4.221004115E-1,4.625305456E-1,1.114638127E0
8.886058500E0,3.853736115E-1,5.243110567E-2,-1.744084096E-1,4.262395272E-1
8.895987500E0,-5.229574263E-2,3.316833079E-3,-1.038925091E0,1.040245736E0
8.905916500E0,-5.255117825E-1,3.080962978E-1,-1.950471513E0,2.043385691E0
8.915846500E0,-5.423368531E-1,5.965298711E-1,-2.885246583E0,2.995767847E0
8.925775500E0,-5.304500484E-1,9.177560916E-1,-3.483733079E0,3.641435110E0
8.935704500E0,-1.242023157E0,1.119226658E0,-3.367404478E0,3.759614707E0
8.945633500E0,-1.678245617E0,9.949264012E-1,-3.130288188E0,3.688507969E0
8.955563500E0,-2.062378449E0,1.000610845E0,-2.639488694E0,3.495930133E0
8.965492500E0,-2.294432219E0,1.133900684E0,-2.194369403E0,3.371261937E0
8.975421500E0,-2.569615929E0,1.066735106E0,-1.833903176E0,3.332274098E0
8.985350500E0,-2.847237635E0,1.070807546E0,-1.378638965E0,3.339765912E0
8.995280500E0,-2.469403423E0,1.396714463E0,-1.102127645E0,3.043591612E0
9.005209500E0,-1.832068319E0,1.872275236E0,-1.037232907E0,2.817399686E0
9.015138500E0,-1.129204931E0,2.333644817E0,-1.158846806E0,2.839705588E0
9.025068500E0,-5.536924383E-1,2.569153706E0,-1.186119390E0,2.883401687E0
9.034997500E0,-5.381169176E-1,2.120387653E0,-7.546895993E-1,2.314124026E0
9.044926500E0,-9.444393486E-1,1.229452520E0,1.452044910E-1,1.557113845E0
9.054855500E0,-1.302822505E0,4.522996724E-2,1.294306328E0,1.837014180E0
9.064785500E0,-1.595555755E0,-9.663500351E-1,2.495712678E0,3.115800431E0
9.074714500E0,-1.519912958E0,-1.152628877E0,3.417648432E0,3.913950630E0
9.084643500E0,-9.011796007E-1,-5.344295172E-1,3.754546872E0,3.897994586E0
9.094572500E0,-2.050001648E-1,2.638257855E-1,3.489904230E0,3.505860900E0
9.104502500E0,3.726331133E-1,8.827964663E-1,2.823936773E0,2.982080471E0
9.114431500E0,6.366853322E-1,1.172798117E0,1.889663978E0,2.313364127E0
9.124360500E0,6.908839050E-1,1.216356511E0,9.137256789E-1,1.670849589E0
9.134290500E0,8.336528845E-1,1.394937055E0,-1.202070594E-2,1.625106463E0
9.144219500E0,8.655259109E-1,1.523069577E0,-6.208626205E-1,1.858587214E0
9.154148500E0,5.638278557E-1,1.382904947E0,-6.884909320E-1,1.644490106E0
9.164077500E0,2.456869917E-1,1.023178978E0,-3.921517038E-1,1.122960497E0
9.174007500E0,2.629317462E-2,6.617844323E-1,1.085389405E-1,6.711413171E-1
9.183936500E0,-1.147703183E-1,4.438744193E-1,6.299714130E-1,7.791410061E-1
9.193865500E0,-1.297653566E-1,2.114682817E-1,1.142433672E0,1.169064830E0
9.203794500E0,-1.161257029E-2,7.322245236E-2,1.552001892E0,1.553771622E0
9.213724500E0,2.983587103E-1,8.709564758E-2,1.747619907E0,1.775043355E0
9.223653500E0,6.050076029E-1,1.340892447E-1,1.824016119E0,1.926408297E0
9.233582500E0,5.835857436E-1,3.729975410E-2,1.898085138E0,1.986124564E0
9.243512500E0,1.955861476E-1,-1.462173019E-2,1.745724825E0,1.756707972E0
9.253441500E0,-1.050668639E-1,1.266771497E-1,1.649053393E0,1.657245679E0
9.263370500E0,-4.508871312E-1,2.730829146E-1,1.947259052E0,2.017347590E0
9.273299500E0,-5.901504126E-1,1.676363837E-2,2.420442640E0,2.491405447E0
9.283229500E0,-8.252701700E-1,-6.014943033E-1,2.735146219E0,2.919570360E0
9.293158500E0,-1.004951599E0,-1.099957597E0,2.764125019E0,3.140098972E0
9.303087500E0,-7.873085842E-1,-1.271579078E0,2.476551937E0,2.893108649E0
9.313016500E0,-6.518547638E-1,-1.145679534E0,1.820401955E0,2.247522971E0
9.322946500E0,-8.118632354E-1,-8.876984064E-1,1.244408528E0,1.730804136E0
9.332875500E0,-9.016239890E-1,-6.012014309E-1,7.227222866E-1,1.302573024E0
9.342804500E0,-8.627363504E-1,-4.148829740E-1,2.692210114E-1,9.944454965E-1
9.352734500E0,-8.693331791E-1,-1.457576924E-1,-8.636220574E-2,8.856883830E-1
9.362663500E0,-7.976834451E-1,1.542545556E-1,-3.715572256E-1,8.933913579E-1
9.372592500E0,-6.997170013E-1,3.629842938E-1,-4.899762064E-1,9.281369308E-1
9.382521500E0,-7.160199156E-1,3.469851789E-1,-4.996112484E-1,9.395182986E-1
9.392451500E0,-5.006656475E-1,-5.408368413E-3,-3.883089137E-1,6.336238265E-1
9.402380500E0,-2.678315668E-1,-3.207969618E-1,-9.647496521E-2,4.288960920E-1
9.412309500E0,-1.491539928E-1,-2.775232354E-1,1.606528348E-1,3.536599964E-1
9.422238500E0,9.581101388E-2,-1.771047617E-1,2.182444006E-1,2.969452229E-1
9.432168500E0,2.499418643E-1,-1.177300327E-4,1.198269904E-1,2.771812710E-1
9.442097500E0,1.888970791E-1,1.677624277E-1,-3.025173962E-2,2.544435230E-1
9.452026500E0,-1.264159253E-1,1.865616829E-1,-3.027378362E-1,3.774075320E-1
9.461956500E0,-4.882692580E-1,-4.001231398E-2,-7.222393066E-1,8.727184366E-1
9.471885500E0,-7.239349991E-1,-4.247826024E-1,-1.105351800E0,1.387921015E0
9.481814500E0,-6.791497126E-1,-7.168730244E-1,-1.373156031E0,1.691362986E0
9.491743500E0,-6.443494239E-1,-6.425917509E-1,-1.674593446E0,1.905878682E0
9.501673500E0,-7.393204853E-1,-1.926083069E-1,-2.054557214E0,2.192007775E0
9.511602500E0,-1.032569168E0,3.080630417E-1,-2.442447467E0,2.669578909E0
9.521531500E0,-1.880746682E0,8.858401613E-1,-2.953353197E0,3.611677724E0
9.531460500E0,-2.749432428E0,1.014188299E0,-3.403418064E0,4.491237146E0
9.541390500E0,-3.219311754E0,7.481730967E-1,-3.496905102E0,4.811660466E0
9.551319500E0,-3.193648617E0,5.280581718E-1,-3.132683793E0,4.504658108E0
9.561248500E0,-2.696620669E0,2.364516069E-1,-2.110743109E0,3.432624195E0
9.571178500E0,-2.004208594E0,8.291300632E-2,-7.972894889E-1,2.158563685E0
9.581107500E0,-1.243827900E0,-1.897542809E-1,-6.169981956E-3,1.258233921E0
9.591036500E0,-1.354959203E0,-1.408344648E-1,-7.317790389E-3,1.362278363E0
9.600965500E0,-1.426117771E0,3.197446091E-1,-4.362525737E-1,1.525242545E0
9.610895500E0,-1.312889948E0,4.552362902E-1,-9.918801481E-1,1.707262817E0
9.620824500E0,-1.395346507E0,1.491862987E-1,-1.508163562E0,2.060049940E0
9.630753500E0,-1.769561292E0,-3.159716932E-1,-1.549553078E0,2.373246725E0
9.640683500E0,-1.979838276E0,-7.519822653E-1,-7.164944172E-1,2.235755169E0
9.650612500E0,-1.970618387E0,-1.091607188E0,6.430522192E-1,2.342746089E0
9.660541500E0,-1.611590867E0,-1.383511450E0,1.250534071E0,2.464784883E0
9.670470500E0,-1.087226601E0,-1.145986294E0,1.403807135E0,2.113296179E0
9.680400500E0,-6.276775503E-1,-4.457388040E-1,1.098590664E0,1.341478153E0
9.690329500E0,-3.203391248E-1,-1.378006004E-1,5.298641574E-1,6.343202548E-1
9.700258500E0,-8.499688089E-2,4.384505421E-2,3.282527465E-1,3.419016293E-1
9.710187500E0,3.218710953E-1,-2.153842351E-1,8.793966758E-1,9.609005589E-1
9.720117500E0,5.182445705E-1,-4.858005635E-1,1.769927620E0,1.907150597E0
9.730046500E0,8.730629718E-1,-6.455282226E-1,2.377394854E0,2.613608986E0
9.739975500E0,9.083649516E-1,-1.078441890E0,2.745216293E0,3.086158825E0
9.749905500E0,8.487870866E-1,-1.086075430E0,2.757365638E0,3.082704108E0
9.759834500E0,7.901003373E-1,-1.406131403E0,2.597914406E0,3.057878894E0
9.769763500E0,8.180921280E-1,-1.147288907E0,2.268263006E0,2.670311523E0
9.779692500E0,1.123995647E0,-6.074719119E-1,1.354075981E0,1.861695491E0
9.789622500E0,1.391153761E0,2.469114717E-1,5.584406698E-1,1.519253120E0
9.799551500E0,1.797289081E0,4.455230418E-1,-1.836826783E-1,1.860773534E0
9.809480500E0,1.967174669E0,4.045543791E-1,5.379391623E-1,2.079138996E0
9.819409500E0,2.140897785E0,2.527510129E-1,1.668908783E0,2.726276385E0
9.829339500E0,2.104822803E0,-3.690380989E-1,2.667938322E0,3.418239758E0
9.839268500E0,1.292423524E0,-8.321011797E-1,3.233476342E0,3.580240242E0
9.849197500E0,-1.888352448E-1,-7.329068206E-1,2.745771779E0,2.848170258E0
9.859127500E0,-1.559523166E0,-1.614358135E-1,1.028636915E0,1.875171440E0
9.869056500E0,-2.348186842E0,-5.932531280E-1,1.948239630E-1,2.429791575E0
9.878985500E0,-2.055514403E0,-2.952143993E0,8.484707522E-1,3.695970269E0
9.888914500E0,-1.280287628E0,-4.697771461E0,2.537947116E0,5.490844077E0
9.898844500E0,-3.601984245E-1,-4.266206893E0,3.518720478E0,5.541809990E0
9.908773500E0,1.054996163E0,-3.474075525E0,3.088766525E0,4.766832943E0
9.918702500E0,1.591069479E0,-2.893630906E0,2.175844254E0,3.954604926E0
9.928631500E0,1.410393439E0,-2.441208442E0,9.171129709E-1,2.964760447E0
9.938561500E0,1.098274330E0,-2.149672409E0,-3.468995172E-1,2.438777818E0
9.948490500E0,4.291417748E-1,-2.028874342E0,-1.008999041E0,2.306203119E0
9.958419500E0,-7.771183491E-2,-2.261668516E0,-1.089856678E0,2.511766546E0
9.968349500E0,-6.878816521E-1,-2.729622939E0,-5.684487641E-1,2.871786300E0
9.978278500E0,-1.299777567E0,-3.364838135E0,4.645723933E-1,3.636947196E0
9.988207500E0,-1.793957337E0,-4.137604693E0,1.439694421E0,4.734002065E0
9.998136500E0,-2.561710786E0,-4.626425782E0,2.026760135E0,5.663385411E0
1.000806650E1,-3.010606209E0,-4.810140036E0,1.993184838E0,6.014481084E0
1.001799550E1,-3.164785591E0,-4.808854818E0,1.491555716E0,5.946905998E0
1.002792450E1,-2.742064059E0,-4.465413636E0,1.146258920E0,5.364023095E0
1.003785450E1,-2.229740964E0,-3.618291252E0,1.313099279E0,4.448371170E0
1.004778350E1,-1.821382533E0,-2.985392723E0,1.635301911E0,3.860597930E0
1.005771250E1,-8.479193598E-1,-2.138906516E0,1.297702975E0,2.641575540E0
1.006764150E1,-1.138069310E0,4.828245135E-2,1.556099621E0,1.928465447E0
1.007757150E1,1.968161094E-1,-9.159400195E-1,1.573355924E0,1.831155800E0
1.008750050E1,2.159169749E0,-1.246420555E0,-1.224406958E-3,2.493106437E0
1.009742950E1,3.041246204E0,5.398653813E-2,-1.229742542E0,3.280908371E0
1.010735850E1,3.385981082E0,1.977796136E0,-1.805399753E0,4.316944951E0
1.011728850E1,3.978406354E0,3.633996581E0,-2.452378378E0,5.920118915E0
1.012721750E1,4.347018337E0,4.902145097E0,-3.153670327E0,7.271398181E0
1.013714650E1,3.877235489E0,5.897623329E0,-3.750070828E0,7.992368059E0
1.014707650E1,3.113204963E0,6.409033674E0,-4.622636202E0,8.493322273E0
1.015700550E1,1.837501552E0,6.645278143E0,-5.187937410E0,8.628489330E0
1.016693450E1,2.160949641E-1,7.049326007E0,-5.784053444E0,9.121127586E0
1.017686350E1,-9.824760711E-1,7.392678604E0,-6.424736956E0,9.843485212E0
1.018679350E1,-2.175113937E0,7.543450813E0,-7.079718665E0,1.057152719E1
1.019672250E1,-2.902920377E0,7.516531987E0,-7.722718259E0,1.116089500E1
1.020665150E1,-3.644575363E0,7.001851294E0,-9.152217475E0,1.208602233E1
1.021658150E1,-4.035560548E0,6.316381034E0,-9.506356430E0,1.210591718E1
1.022651050E1,-3.935615845E0,5.479693590E0,-8.622469093E0,1.094820018E1
1.023643950E1,-3.719667646E0,4.126593509E0,-7.072404968E0,8.993531754E0
1.024636850E1,-3.554666237E0,2.912925840E0,-4.914450855E0,6.728492863E0
1.025629850E1,-3.045725756E0,2.013258622E0,-2.880047824E0,4.650196891E0
1.026622750E1,-1.862387302E0,1.604720096E0,-1.115449503E0,2.699600089E0
1.027615650E1,-9.211165595E-1,1.784781448E0,-5.816824749E-2,2.009299400E0
1.028608550E1,-6.246463537E-2,1.772484315E0,2.241658759E-1,1.787694833E0
1.029601550E1,8.207841861E-1,1.201113843E0,1.584699961E-1,1.463377560E0
1.030594450E1,1.390704694E0,7.220185011E-1,-1.365435952E-1,1.572900002E0
1.031587350E1,2.137578905E0,1.216771956E-1,-5.368737996E-1,2.207324714E0
1.032580350E1,2.808380256E0,-2.620282052E-1,-8.479866028E-1,2.945291109E0
1.033573250E1,3.548407377E0,-1.144359526E0,-9.113492974E-1,3.838139025E0
1.034566150E1,4.930905504E0,-2.326531971E0,7.833666837E-1,5.508197842E0
1.035559050E1,4.815161625E0,-2.974857502E0,1.147120654E0,5.775070945E0
1.036552050E1,5.808407097E0,-3.721720603E0,1.639454019E0,7.090599886E0
1.037544950E1,6.095960884E0,-4.970535008E0,1.696294656E0,8.046388813E0
1.038537850E1,7.492027475E0,-5.015285504E0,9.583362798E-1,9.066530362E0
1.039530850E1,9.018039079E0,-4.968858612E0,1.893450050E0,1.046898934E1
1.040523750E1,6.038275763E0,-8.381966681E0,4.270810990E0,1.117845992E1
1.041516650E1,4.039682835E0,-1.052594010E1,6.772365621E0,1.315216288E1
1.042509550E1,3.227378865E0,-1.198114836E1,4.990883904E0,1.337433409E1
1.043502550E1,1.331520347E0,-1.045651962E1,1.740531328E0,1.068368842E1
1.044495450E1,-1.247961296E0,-7.243098641E0,-1.520463181E0,7.505444264E0
1.045488350E1,-5.465731024E0,-5.276998106E0,-5.297728239E0,9.262119041E0
1.046481250E1,-7.388996027E0,-4.085004311E0,-8.149029397E0,1.173418947E1
1.047474250E1,-5.654404301E0,-3.305663728E0,-8.308956592E0,1.058009737E1
1.048467150E1,-4.501412897E0,-2.490750146E0,-7.209499955E0,8.856830356E0
1.049460050E1,-2.357625418E0,-2.283076049E0,-5.750957619E0,6.621506429E0
1.050453050E1,1.117456121E0,-2.248452054E0,-3.593963034E0,4.384155006E0
1.051445950E1,2.979836991E0,-1.405815361E0,-1.079979635E0,3.467290200E0
1.052438850E1,2.590060426E0,-8.423798539E-1,7.846717823E-1,2.834382937E0
1.053431750E1,2.431020838E-1,-1.495823745E0,1.245310900E0,1.961475602E0
1.054424750E1,-1.848621787E0,-2.832456166E0,7.647528036E-1,3.467716438E0
1.055417650E1,-2.335649827E0,-3.895654804E0,1.147061451E0,4.684777096E0
1.056410550E1,-2.193081261E0,-3.990940445E0,2.438415227E0,5.165566752E0
1.057403550E1,-2.592796338E0,-2.149346573E0,4.303724675E0,5.464826586E0
1.058396450E1,-2.346026881E0,-7.899800308E-1,4.937395914E0,5.523204594E0
1.059389350E1,-1.499282227E0,-5.053193003E-2,4.869243399E0,5.095089003E0
1.060382250E1,1.318769909E0,7.950599456E-1,4.457873652E0,4.716345183E0
1.061375250E1,4.942868907E0,2.763514862E0,4.302778011E0,7.112163246E0
1.062368150E1,8.556755744E0,5.428056244E0,4.090741307E0,1.092776408E1
1.063361050E1,1.354711574E1,8.579136547E0,3.575295506E0,1.642889730E1
1.064353950E1,1.517032502E1,1.023610064E1,2.943279321E0,1.853589520E1
1.065346950E1,1.499357305E1,9.969647698E0,2.455010794E0,1.817218165E1
1.066339850E1,1.339571846E1,8.532496816E0,8.769618952E-1,1.590653442E1
1.067332750E1,1.123161834E1,5.629232622E0,-8.493852568E-1,1.259201992E1
1.068325750E1,8.658009054E0,1.861613861E0,-1.277071660E0,8.947493446E0
1.069318650E1,4.974256761E0,-1.860107911E0,-8.633881688E-1,5.380396909E0
1.070311550E1,1.008540035E0,-4.126493522E0,2.122001338E-1,4.253249427E0
1.071304450E1,-1.710392439E0,-5.608970266E0,6.077110265E-1,5.895362791E0
1.072297450E1,-3.523873630E0,-7.227852026E0,-3.728325033E-1,8.049753682E0
1.073290350E1,-5.723133059E0,-7.259323495E0,-2.665214689E0,9.620571654E0
1.074283250E1,-1.002530384E1,-5.885215538E0,-3.842615295E0,1.224369925E1
1.075276250E1,-1.299061400E1,-5.065314281E0,-3.062578601E0,1.427560327E1
1.076269150E1,-1.351756040E1,-5.029361506E0,-2.380133690E0,1.461793257E1
1.077262050E1,-1.321681471E1,-4.953606734E0,-3.227722097E0,1.447897098E1
1.078254950E1,-1.279217354E1,-3.552490780E0,-3.360798293E0,1.369506699E1
1.079247950E1,-1.352816491E1,-3.222047082E0,-3.964854262E0,1.446073659E1
1.080240850E1,-1.453922334E1,-3.813330100E0,-5.589496114E0,1.603661338E1
1.081233750E1,-1.401894511E1,-4.757863004E0,-5.808646249E0,1.590309572E1
1.082226750E1,-1.246613630E1,-4.827766760E0,-5.129879236E0,1.431878302E1
1.083219650E1,-1.004303259E1,-4.504348199E0,-4.212578570E0,1.178547727E1
1.084212550E1,-6.870864308E0,-4.767417062E0,-3.643611742E0,9.122113149E0
1.085205450E1,-3.328037513E0,-4.944539457E0,-3.140306808E0,6.736900695E0
1.086198475E1,2.349288458E-1,-4.593259791E0,-2.802907554E0,5.386048442E0
1.087191375E1,4.319939296E0,-3.740311241E0,-2.222590843E0,6.131208181E0
1.088184275E1,6.891885633E0,-2.488157783E0,-7.140888727E-1,7.361992913E0
1.089177275E1,7.171934518E0,-1.437263149E0,1.317661569E0,7.432267629E0
1.090170175E1,3.579958953E0,-2.654904878E-1,2.367692861E0,4.300297756E0
1.091163075E1,-5.565783316E-1,1.220099752E-1,1.114293508E0,1.251525427E0
1.092155975E1,-3.292703959E0,1.984923600E-1,6.525153530E-1,3.362599421E0
1.093148975E1,-4.179920116E0,1.132172686E0,5.371641138E-1,4.363724608E0
1.094141875E1,1.728027642E0,3.151075040E0,-1.526048149E0,3.904379130E0
1.095134775E1,1.217259087E1,4.286670686E0,-4.172581568E0,1.356310993E1
1.096127675E1,2.241392126E1,2.463453004E0,-4.060751230E0,2.291161643E1
1.097120675E1,2.640477224E1,-7.672314383E-1,-3.176659240E0,2.660623621E1
1.098113575E1,2.285331847E1,-2.760010918E0,-3.708337204E0,2.331616585E1
1.099106475E1,1.855069395E1,-3.217636819E0,-2.441452563E0,1.898531336E1
1.100099475E1,1.124014943E1,-2.408935758E0,1.629607308E-1,1.149654239E1
1.101092375E1,5.111609026E0,-2.089916935E0,1.993191855E0,5.871040232E0
1.102085275E1,1.040803217E0,-1.987775871E0,2.593667573E0,3.429524126E0
1.103078175E1,-1.356792598E0,-1.094390829E0,2.474163349E0,3.026559386E0
1.104071175E1,-2.837286551E0,-7.288568929E-1,2.621754674E0,3.931287946E0
1.105064075E1,-3.069684137E0,-5.280075203E-1,2.702838013E0,4.123964836E0
1.106056975E1,-2.045209270E0,-3.896248296E-1,2.592575021E0,3.325076496E0
1.107049975E1,-1.319159333E0,-2.842793459E-1,2.276152946E0,2.646104368E0
1.108042875E1,-8.972575808E-1,-6.738506734E-2,1.894515121E0,2.097331508E0
1.109035775E1,-2.969701427E-1,6.683250546E-2,1.990848729E0,2.013985232E0
1.110028675E1,2.719440597E-1,1.773349410E-1,2.469631172E0,2.490879238E0
1.111021675E1,7.994196296E-1,3.642240132E-1,2.932299420E0,3.061063665E0
1.112014575E1,9.798436546E-1,6.714606971E-1,3.163440732E0,3.379099039E0
1.113007475E1,5.325971460E-1,9.958490188E-1,2.959169715E0,3.167342796E0
1.114000475E1,2.955153555E-1,9.649541585E-1,2.400095353E0,2.603636602E0
1.114993375E1,2.621394485E-1,1.721532555E0,2.632024723E0,3.155938144E0
1.115986275E1,-6.524492794E-1,2.813034932E0,2.745079468E0,3.984258636E0
1.116979175E1,-9.721890646E-1,3.104830581E0,2.341294583E0,4.008339412E0
1.117972175E1,-9.637059242E-1,3.462977217E0,2.226714445E0,4.228380013E0
1.118965075E1,-6.476984167E-1,3.513477280E0,2.084197627E0,4.136171610E0
1.119957975E1,-7.098110497E-1,3.138523992E0,1.921211168E0,3.747694882E0
1.120950875E1,-1.106597257E0,2.500586917E0,1.764433284E0,3.254338217E0
1.121943875E1,-1.482268583E0,1.868832980E0,1.529823111E0,2.833728218E0
1.122936775E1,-1.427973678E0,1.490475150E0,1.314335088E0,2.447059811E0
1.123929675E1,-9.411695856E-1,7.677078402E-1,1.228718402E0,1.727693384E0
1.124922675E1,-2.224842167E-1,8.034922153E-2,1.178380015E0,1.201887966E0
1.125915575E1,1.158076143E-1,-2.189542526E-1,1.162401913E0,1.188499296E0
1.126908475E1,-6.954444408E-2,-4.425386229E-1,1.239949149E0,1.318389455E0
1.127901375E1,-4.599320430E-1,-4.310212892E-1,1.290200413E0,1.435943572E0
1.128894375E1,-9.451614797E-1,-1.898099939E-1,1.364021803E0,1.670303426E0
1.129887275E1,-1.269212417E0,5.099446306E-2,1.332729259E0,1.841105068E0
1.130880175E1,-1.293844982E0,2.512779896E-1,1.076955966E0,1.702060404E0
1.131873175E1,-1.173239143E0,4.532127151E-1,6.855380881E-1,1.432429517E0
1.132866075E1,-1.016655385E0,4.809703249E-1,3.517407194E-1,1.178406619E0
1.133858975E1,-8.845264381E-1,3.054193876E-1,1.834929362E-1,9.535919881E-1
1.134851875E1,-8.064731258E-1,-2.383732578E-2,1.110283926E-1,8.144288948E-1
1.135844875E1,-7.875860345E-1,-3.495600003E-1,2.312757978E-1,8.921728814E-1
1.136837775E1,-8.734716922E-1,-6.189020491E-1,5.490503338E-1,1.203099669E0
1.137830675E1,-8.904151690E-1,-8.395552102E-1,9.337164322E-1,1.539324040E0
1.138823675E1,-8.356092167E-1,-9.625528532E-1,1.294028877E0,1.816386934E0
1.139816575E1,-7.541206652E-1,-1.029739992E0,1.559971940E0,2.015583013E0
1.140809475E1,-6.595577395E-1,-9.793653524E-1,1.788060128E0,2.142739351E0
1.141802375E1,-6.802089357E-1,-9.117448615E-1,1.972997180E0,2.277428541E0
1.142795375E1,-7.550684988E-1,-7.777583268E-1,2.106364422E0,2.368925395E0
1.143788275E1,-8.530122846E-1,-5.102397688E-1,2.173124422E0,2.389653601E0
1.144781175E1,-8.478258044E-1,-1.537601735E-1,2.182334956E0,2.346281450E0
1.145774175E1,-8.410962439E-1,2.245743039E-1,2.234483056E0,2.398080699E0
1.146767075E1,-7.726393819E-1,5.969582893E-1,2.273539972E0,2.474331186E0
1.147759975E1,-5.707361948E-1,8.189923069E-1,2.391015212E0,2.591031058E0
1.148752875E1,-4.884530067E-2,8.065514785E-1,2.497483799E0,2.624945043E0
1.149745875E1,9.894020981E-1,8.417932320E-1,2.577742682E0,2.886570576E0
1.150738775E1,2.274058766E0,1.008212883E0,2.560887498E0,3.570151434E0
1.151731675E1,3.851303673E0,1.428137107E0,2.503942634E0,4.810597083E0
1.152724675E1,5.444700344E0,1.931675638E0,2.605901703E0,6.337732740E0
1.153717575E1,6.832092590E0,2.479656224E0,2.810764750E0,7.792726264E0
1.154710475E1,7.622009325E0,3.018907793E0,3.137910619E0,8.778115599E0
1.155703375E1,7.467750421E0,3.665654868E0,3.480886070E0,9.017809589E0
1.156696375E1,6.305276002E0,4.468714974E0,3.764032810E0,8.596153906E0
1.157689275E1,4.541506085E0,5.180988579E0,3.841630624E0,7.888348751E0
1.158682175E1,2.656762539E0,5.438101761E0,3.546569012E0,7.014947591E0
1.159675075E1,8.056445754E-1,5.305868148E0,2.885679277E0,6.093311487E0
1.160668075E1,-8.362336993E-1,4.940635271E0,2.130766314E0,5.445119720E0
1.161660975E1,-2.130906647E0,4.503974854E0,1.532894361E0,5.213090997E0
1.162653875E1,-2.997455821E0,4.134374107E0,1.208588777E0,5.247711643E0
1.163646875E1,-3.550106578E0,3.829539459E0,1.178788151E0,5.353332671E0
1.164639775E1,-3.910178118E0,3.586633842E0,1.459515167E0,5.503055492E0
1.165632675E1,-4.251240360E0,3.217109108E0,1.731568277E0,5.605458439E0
1.166625575E1,-4.362912823E0,2.426890657E0,1.838856498E0,5.320357111E0
1.167618575E1,-3.777601858E0,1.683690837E0,1.800395706E0,4.510711178E0
1.168611475E1,-3.256213825E0,1.208699290E0,1.750871836E0,3.889657393E0
1.169604375E1,-2.781353256E0,8.879765877E-1,1.706337834E0,3.381718077E0
1.170597375E1,-2.304127488E0,6.687384528E-1,1.719049827E0,2.951499094E0
1.171590275E1,-1.871691391E0,5.320223647E-1,1.737632863E0,2.608763007E0
1.172583175E1,-1.511374269E0,4.178423229E-1,1.801513109E0,2.388366360E0
1.173576075E1,-1.237617572E0,2.441054660E-1,1.728311232E0,2.139706626E0
1.174569075E1,-9.799500740E-1,2.103331178E-2,1.634642345E0,1.905990594E0
1.175561975E1,-6.407261968E-1,-1.927049321E-1,1.579645189E0,1.715501144E0
1.176554875E1,-2.873701841E-1,-3.611573678E-1,1.521087663E0,1.589567220E0
1.177547875E1,1.918179095E-2,-4.488823037E-1,1.456571678E0,1.524291415E0
1.178540775E1,2.428249258E-1,-4.622244439E-1,1.244723108E0,1.349796650E0
1.179533675E1,2.358369184E-1,-3.936383219E-1,8.752593322E-1,9.882555738E-1
1.180526575E1,5.357452869E-2,-3.202046388E-1,4.324752724E-1,5.407736145E-1
1.181519575E1,-1.814560586E-1,-2.441788486E-1,3.890152574E-3,3.042445473E-1
1.182512475E1,-3.610965568E-1,-7.223723307E-2,-3.618502629E-1,5.162795308E-1
1.183505375E1,-4.798388886E-1,2.171844466E-1,-6.987083566E-1,8.749901774E-1
1.184498375E1,-5.923030651E-1,6.155662125E-1,-8.136155728E-1,1.179709703E0
1.185491275E1,-8.140224659E-1,1.030960452E0,-7.058899069E-1,1.491238609E0
1.186484129E1,-1.040920161E0,1.412596085E0,-4.932857305E-1,1.822710425E0
1.187477029E1,-1.274508825E0,1.735294854E0,-3.739751223E-1,2.185286793E0
1.188470029E1,-1.433866501E0,2.052221397E0,-3.848344251E-1,2.532919924E0
1.189462929E1,-1.428986415E0,2.385637235E0,-4.217596650E-1,2.812676378E0
1.190455829E1,-1.277434772E0,2.734030277E0,-4.572447357E-1,3.052185103E0
1.191448829E1,-1.052095944E0,3.069896683E0,-5.371982469E-1,3.289339368E0
1.192441729E1,-8.085307610E-1,3.443993062E0,-6.297555777E-1,3.593243979E0
1.193434629E1,-6.845446461E-1,3.777840717E0,-7.544744217E-1,3.912788457E0
1.194427529E1,-5.995547819E-1,4.059297320E0,-8.876219541E-1,4.198241703E0
1.195420529E1,-5.488594222E-1,4.274166707E0,-1.009669205E0,4.425966517E0
1.196413429E1,-5.152151281E-1,4.445275826E0,-1.124904962E0,4.614253457E0
1.197406329E1,-4.267397386E-1,4.522024916E0,-1.206151950E0,4.699533879E0
1.198399329E1,-2.639286965E-1,4.511053786E0,-1.176510733E0,4.669415608E0
1.199392229E1,2.742578030E-2,4.352405961E0,-1.030775315E0,4.472883586E0
1.200385129E1,3.986760271E-1,3.956667575E0,-9.614046063E-1,4.091266270E0
1.201378029E1,8.321669608E-1,3.316756188E0,-9.724990401E-1,3.555155108E0
1.202371029E1,1.116136404E0,2.428996824E0,-9.973911488E-1,2.853169317E0
1.203363929E1,1.297686018E0,1.631084899E0,-9.847189900E-1,2.305232839E0
1.204356829E1,1.007930755E0,6.643133531E-1,-1.060638726E0,1.606919770E0
1.205349829E1,7.580505788E-1,-2.367424328E-1,-1.018690728E0,1.291672737E0
1.206342729E1,6.533351326E-1,-9.973241982E-1,-8.568872344E-1,1.468250007E0
1.207335629E1,6.845423073E-1,-1.602874715E0,-6.662095320E-1,1.865915503E0
1.208328529E1,7.885946792E-1,-2.149522428E0,-4.603513614E-1,2.335433924E0
1.209321529E1,8.994596422E-1,-2.742508740E0,-2.570892815E-1,2.897667465E0
1.210314429E1,1.228884171E0,-3.139408383E0,-3.915763378E-2,3.371583400E0
1.211307329E1,1.600730249E0,-3.370362292E0,2.997030582E-1,3.743193988E0
1.212300329E1,1.751684307E0,-3.689330829E0,7.395013835E-1,4.150472524E0
1.213293229E1,1.794286535E0,-4.068030136E0,1.258142615E0,4.620741953E0
1.214286129E1,1.920750116E0,-4.357225236E0,1.929532049E0,5.137877645E0
1.215279029E1,2.147836091E0,-4.538352097E0,2.653309758E0,5.678898863E0
1.216272029E1,2.362296174E0,-4.825384896E0,3.241926738E0,6.274939967E0
1.217264929E1,2.515727112E0,-5.166000996E0,3.375727404E0,6.664231741E0
1.218257829E1,2.594083310E0,-5.276589970E0,2.985783609E0,6.594435055E0
1.219250829E1,2.276897004E0,-5.323662395E0,2.359777047E0,6.252534604E0
1.220243729E1,1.586736107E0,-5.323631405E0,1.682780571E0,5.804354681E0
1.221236629E1,1.061655557E0,-5.116960398E0,1.088971848E0,5.338188450E0
1.222229529E1,8.168419933E-1,-4.707568471E0,7.166170625E-1,4.831352995E0
1.223222529E1,8.327598685E-1,-3.993491001E0,5.545603113E-1,4.116915898E0
1.224215429E1,6.402432168E-1,-3.186829887E0,3.583014415E-1,3.270195105E0
1.225208329E1,2.538919508E-1,-2.483542868E0,9.487545937E-2,2.498288945E0
1.226201329E1,-1.558943707E-1,-1.894538217E0,-1.375773829E-1,1.905913337E0
1.227194229E1,-5.897478318E-1,-1.438575410E0,-3.241826458E-1,1.588205309E0
1.228187129E1,-1.044906793E0,-1.080829601E0,-5.155818216E-1,1.589291492E0
1.229180029E1,-1.483230450E0,-8.154997650E-1,-6.630024804E-1,1.817851678E0
1.230173029E1,-1.825739293E0,-5.871939142E-1,-7.949114994E-1,2.076055142E0
1.231165929E1,-2.081926861E0,-3.893986885E-1,-8.681536496E-1,2.289048176E0
1.232158829E1,-2.323530888E0,-1.938075525E-1,-7.672132389E-1,2.454582105E0
1.233151829E1,-2.473624821E0,6.349710748E-2,-6.250439644E-1,2.552162141E0
1.234144729E1,-2.645168095E0,3.268210557E-1,-4.657746174E-1,2.705674083E0
1.235137629E1,-2.858975043E0,5.563837655E-1,-3.784195544E-1,2.937090831E0
1.236130529E1,-3.009325669E0,7.699838689E-1,-3.617661361E-1,3.127265719E0
1.237123529E1,-2.971311750E0,9.951273993E-1,-4.210615075E-1,3.161687026E0
1.238116429E1,-2.865107018E0,1.089381300E0,-4.168761436E-1,3.093440732E0
1.239109329E1,-2.686100358E0,1.143131245E0,-4.437417606E-1,2.952759883E0
1.240102329E1,-2.496161744E0,1.275254637E0,-5.911364724E-1,2.864705948E0
1.241095229E1,-2.368631047E0,1.419956268E0,-7.066020977E-1,2.850609648E0
1.242088129E1,-2.255021986E0,1.516326860E0,-8.772233389E-1,2.855502073E0
1.243081029E1,-2.114723309E0,1.376731018E0,-1.193424974E0,2.791362774E0
1.244074029E1,-1.785387658E0,9.697694868E-1,-1.529279612E0,2.542982123E0
1.245066929E1,-1.353511140E0,6.243627638E-1,-1.765491337E0,2.310580215E0
1.246059829E1,-9.726299447E-1,3.152263194E-1,-1.888737779E0,2.147721360E0
1.247052829E1,-5.254074097E-1,3.800748646E-2,-1.945837010E0,2.015881738E0
1.248045729E1,-2.961790144E-2,-2.163753381E-1,-1.934492242E0,1.946780866E0
1.249038629E1,5.467795676E-1,-3.838164979E-1,-1.900681302E0,2.014664342E0
1.250031529E1,1.055265720E0,-4.788580182E-1,-1.924505782E0,2.246466836E0
1.251024529E1,1.485763464E0,-5.390603659E-1,-1.982062849E0,2.535084276E0
1.252017429E1,1.836878239E0,-6.186947653E-1,-2.068540830E0,2.834742677E0
1.253010329E1,2.096242599E0,-8.198617879E-1,-2.191098470E0,3.141228882E0
1.254003329E1,2.279404875E0,-1.076896909E0,-2.399796706E0,3.480577218E0
1.254996229E1,2.258881733E0,-1.571952884E0,-2.742175741E0,3.884985244E0
1.255989129E1,2.020976654E0,-2.342201340E0,-3.171377158E0,4.430337101E0
1.256982029E1,1.742070315E0,-3.161424612E0,-3.620177856E0,5.112250216E0
1.257975029E1,1.501730456E0,-4.018457150E0,-4.029622115E0,5.885664501E0
1.258967929E1,1.463054633E0,-4.891811313E0,-4.380656199E0,6.727592103E0
1.259960829E1,1.689848832E0,-5.607830059E0,-4.704268595E0,7.512222711E0
1.260953829E1,2.018401541E0,-6.125202810E0,-5.102543503E0,8.223624775E0
1.261946729E1,2.092417350E0,-6.303821799E0,-5.686731802E0,8.743872039E0
1.262939629E1,1.681932287E0,-5.374270631E0,-5.921713858E0,8.171803720E0
1.263932529E1,1.611951056E0,-3.616721275E0,-5.163612993E0,6.507069857E0
1.264925529E1,2.988624187E0,-2.834257109E0,-3.718742031E0,5.549227891E0
1.265918429E1,4.650016959E0,-2.612740314E0,-2.263641951E0,5.794233732E0
1.266911329E1,5.711697074E0,-2.035402612E0,-1.403117748E0,6.223751817E0
1.267904329E1,6.097365385E0,-9.314716861E-1,-9.690602195E-1,6.243763437E0
1.268897229E1,5.547847567E0,9.858113229E-2,-7.186783522E-1,5.595071888E0
1.269890129E1,4.466909646E0,9.730211234E-1,-1.164274375E-1,4.573139758E0
1.270883129E1,3.177970478E0,1.781075921E0,7.153752601E-1,3.712612228E0
1.271876029E1,2.054890505E0,2.476214553E0,1.576171943E0,3.583089657E0
1.272868929E1,9.324999189E-1,2.938256563E0,2.169637434E0,3.769646446E0
1.273861829E1,4.825122356E-3,3.263267029E0,2.561466372E0,4.148499121E0
1.274854829E1,-5.708040226E-1,3.648826289E0,2.857127323E0,4.669360455E0
1.275847729E1,-9.071990168E-1,4.050042054E0,2.992191573E0,5.116547772E0
1.276840629E1,-1.236156937E0,4.436722811E0,2.744671333E0,5.361512287E0
1.277833629E1,-1.635111877E0,4.670031686E0,2.037034863E0,5.350915606E0
1.278826529E1,-2.180782228E0,4.811047816E0,8.029916936E-1,5.342919415E0
1.279819429E1,-2.761418928E0,4.737066505E0,-4.562133600E-1,5.502123608E0
1.280812329E1,-3.204273593E0,4.599007019E0,-1.032454124E0,5.699490884E0
1.281805329E1,-3.529641323E0,4.163100016E0,-9.508560830E-1,5.540207298E0
1.282798229E1,-3.687921358E0,3.108329555E0,-3.079041436E-1,4.832937153E0
1.283791129E1,-3.559351026E0,1.557384839E0,3.861302412E-1,3.904295561E0
1.284784129E1,-3.279092225E0,2.539866392E-1,8.883041780E-1,3.406763765E0
1.285777054E1,-2.999846748E0,-7.341290349E-1,1.564994259E0,3.462258364E0
1.286769954E1,-2.756430668E0,-1.415637807E0,2.066240535E0,3.724418126E0
1.287762854E1,-2.630877500E0,-1.789747050E0,2.052174181E0,3.786308200E0
1.288755854E1,-2.469480314E0,-1.958023776E0,1.857949704E0,3.658437813E0
1.289748754E1,-2.123251473E0,-1.991245317E0,1.778685872E0,3.411301534E0
1.290741654E1,-1.777911408E0,-2.051352063E0,1.622265544E0,3.162397786E0
1.291734654E1,-1.149075524E0,-1.958102714E0,1.657422367E0,2.810976645E0
1.292727554E1,-2.374144971E-1,-1.360642112E0,1.920801132E0,2.365838032E0
1.293720454E1,9.250119746E-2,-5.444725487E-1,1.811885339E0,1.894184603E0
1.294713354E1,-9.403492212E-3,1.896938718E-1,1.305904134E0,1.319643057E0
1.295706354E1,-5.195034760E-1,5.054754210E-1,5.901255620E-1,9.346857449E-1
1.296699254E1,-9.769112760E-1,6.403850117E-1,-1.450693472E-1,1.177069972E0
1.297692154E1,-1.336932530E0,6.994386739E-1,-6.056545973E-1,1.625859938E0
1.298685154E1,-1.906332636E0,5.621600837E-1,-8.036553526E-1,2.143826020E0
1.299678054E1,-2.259445989E0,5.156910914E-1,-8.958448935E-1,2.484667292E0
1.300670954E1,-2.421339603E0,6.748227730E-1,-9.539803234E-1,2.688559039E0
1.301663854E1,-2.803138227E0,7.927821627E-1,-9.910293051E-1,3.077048352E0
1.302656854E1,-2.975735754E0,8.514423072E-1,-1.053291846E0,3.269461881E0
1.303649754E1,-2.832080775E0,8.893758264E-1,-1.636491527E0,3.389657121E0
1.304642654E1,-2.667167074E0,7.069947383E-1,-2.418876171E0,3.669411900E0
1.305635654E1,-2.605381300E0,3.046832232E-1,-2.855113542E0,3.877178991E0
1.306628554E1,-2.920591832E0,-1.619450694E-1,-3.878311962E0,4.857714126E0
1.307621454E1,-3.568684351E0,-6.893577817E-1,-4.671703112E0,5.919082033E0
1.308614454E1,-3.415987823E0,-5.879699859E-1,-4.326513906E0,5.543771648E0
1.309607354E1,-2.216207584E0,-5.070211324E-1,-4.456753618E0,5.003128950E0
1.310600254E1,-7.410614938E-1,-6.593074787E-1,-4.770069652E0,4.872106625E0
1.311593154E1,3.239836943E-1,-8.711386532E-1,-4.674098132E0,4.765610279E0
1.312586154E1,1.143368057E0,-8.520369691E-1,-4.004160415E0,4.250477401E0
1.313579054E1,1.750348218E0,-7.096204305E-1,-3.176724436E0,3.695789250E0
1.314571954E1,2.245082304E0,-3.470223087E-1,-2.399687948E0,3.304439632E0
1.315564954E1,2.627420626E0,3.663733765E-1,-1.575960274E0,3.085647319E0
1.316557854E1,2.872794353E0,1.307033377E0,-8.200521147E-1,3.260946046E0
1.317550754E1,3.013474853E0,2.340197791E0,-3.615789521E-1,3.832531243E0
1.318543654E1,2.974189165E0,3.295256561E0,-2.740940809E-1,4.447431231E0
1.319536654E1,2.602837762E0,4.022690241E0,-5.312873697E-1,4.820691596E0
1.320529554E1,2.229328151E0,4.649676943E0,-1.119220226E0,5.276556983E0
1.321522454E1,2.076946203E0,5.076383645E0,-1.830183177E0,5.782123044E0
1.322515454E1,2.430341976E0,5.094866694E0,-2.286489362E0,6.090341727E0
1.323508354E1,3.250291765E0,4.384184409E0,-2.506437056E0,6.005638701E0
1.324501254E1,4.234402717E0,2.984526165E0,-2.702715222E0,5.843135492E0
1.325494154E1,4.770431010E0,1.421466311E0,-2.336816347E0,5.498935272E0
1.326487154E1,4.939644168E0,3.914085227E-1,-7.826931576E-1,5.016561942E0
1.327480054E1,4.221153511E0,-6.093355109E-2,1.347789055E0,4.431521770E0
1.328472954E1,2.261592502E0,-2.051777740E-1,2.890068197E0,3.675512583E0
1.329465954E1,1.824869227E-1,-4.625570042E-1,3.658033315E0,3.691675526E0
1.330458854E1,-9.046934849E-1,-1.033579566E0,3.395592735E0,3.662895991E0
1.331451754E1,-1.456820916E0,-1.738399141E0,2.576037633E0,3.432248336E0
1.332444754E1,-1.578821901E0,-2.309500786E0,1.835232832E0,3.345826060E0
1.333437654E1,-1.168847884E0,-2.840206650E0,1.050407853E0,3.245972251E0
1.334430554E1,-3.974872881E-1,-3.449433897E0,3.000481353E-1,3.485200028E0
1.335423454E1,4.933892262E-1,-4.002106873E0,-1.904888374E-1,4.036902073E0
1.336416454E1,1.462790338E0,-4.600639561E0,-3.535495921E-1,4.840520350E0
1.337409354E1,2.522694070E0,-5.166788031E0,-1.093610225E-1,5.750795054E0
1.338402254E1,3.438448732E0,-5.278791447E0,4.786109003E-1,6.318040615E0
1.339395254E1,3.410967404E0,-4.992966682E0,1.213976037E0,6.167507822E0
1.340388154E1,2.065535946E0,-4.199590734E0,1.940289756E0,5.066332541E0
1.341381054E1,3.113917154E-1,-2.989338132E0,2.258249064E0,3.759361129E0
1.342373954E1,-9.407579416E-1,-2.190467263E0,2.203627884E0,3.246405425E0
1.343366954E1,-1.430398518E0,-1.428387222E0,2.240508027E0,3.017649117E0
1.344359854E1,-1.726900883E0,-7.249326803E-1,2.495167717E0,3.119867944E0
1.345352754E1,-2.174240363E0,-1.350465618E-1,2.627974942E0,3.413474919E0
1.346345754E1,-2.367432368E0,4.496766114E-1,2.772277207E0,3.673209222E0
1.347338654E1,-2.256700721E0,1.183506415E0,2.913651772E0,3.870756028E0
1.348331554E1,-2.152233782E0,2.088882270E0,2.991677603E0,4.236233500E0
1.349324554E1,-2.260684429E0,2.873528763E0,3.024417917E0,4.744993717E0
1.350317454E1,-2.467219196E0,3.412613980E0,3.039306682E0,5.193312030E0
1.351310354E1,-2.837730939E0,3.696448937E0,2.658523135E0,5.365090576E0
1.352303254E1,-3.217218744E0,3.892253771E0,1.908787151E0,5.398481661E0
1.353296254E1,-3.613860524E0,3.943046486E0,8.168178736E-1,5.410618719E0
1.354289154E1,-4.236286106E0,3.833991821E0,-1.526035577E-1,5.715671535E0
1.355282054E1,-4.787101421E0,3.644929997E0,-7.418052596E-1,6.062353482E0
1.356275054E1,-5.112564461E0,3.333763399E0,-1.089469593E0,6.199938529E0
1.357267954E1,-5.167249376E0,2.566204663E0,-1.190090965E0,5.890856389E0
1.358260854E1,-5.099985346E0,1.802294005E0,-1.145331552E0,5.529005207E0
1.359253754E1,-5.198591037E0,9.554715827E-1,-1.074816909E0,5.393839644E0
1.360246754E1,-5.228939255E0,1.288977760E-1,-1.077485139E0,5.340355288E0
1.361239654E1,-5.199168742E0,-6.521884936E-1,-1.116292525E0,5.357500764E0
1.362232554E1,-4.885455097E0,-1.335640003E0,-1.103201267E0,5.183498698E0
1.363225554E1,-4.095866976E0,-1.805899398E0,-1.010588899E0,4.588974705E0
1.364218454E1,-3.024684550E0,-2.057186999E0,-8.543472040E-1,3.756413731E0
1.365211354E1,-1.766085999E0,-2.181082190E0,-7.566495860E-1,2.906664389E0
1.366204354E1,-4.363122153E-1,-2.206257669E0,-7.423929048E-1,2.368351426E0
1.367197254E1,9.598789215E-1,-2.128696400E0,-8.610212159E-1,2.488789553E0
1.368190154E1,2.345121732E0,-1.995604416E0,-1.072374673E0,3.260677899E0
1.369183054E1,3.672467752E0,-1.832701573E0,-1.383575184E0,4.331292501E0
1.370176054E1,4.899623485E0,-1.653524759E0,-1.965741516E0,5.532141912E0
1.371168954E1,5.871251217E0,-1.584267705E0,-2.757534038E0,6.677236628E0
1.372161854E1,6.726493630E0,-1.769213675E0,-3.603591059E0,7.833371056E0
1.373154854E1,7.263594886E0,-2.261290201E0,-4.527392660E0,8.852713050E0
1.374147754E1,7.440393053E0,-3.063385516E0,-5.529042921E0,9.762893794E0
1.375140654E1,6.638561447E0,-4.027996297E0,-6.534731269E0,1.014879131E1
1.376133554E1,4.365891979E0,-4.754203232E0,-7.492329776E0,9.889310725E0
1.377126554E1,2.041300991E0,-4.771285580E0,-7.409574133E0,9.046207197E0
1.378119454E1,1.586285287E0,-4.508516971E0,-5.991446582E0,7.664232410E0
1.379112354E1,2.363340486E0,-4.093537445E0,-4.024771850E0,6.208157175E0
1.380105354E1,2.786950210E0,-3.592075845E0,-2.549573135E0,5.212525638E0
1.381098254E1,2.750318574E0,-2.852029721E0,-1.629321964E0,4.284041999E0
1.382091154E1,2.389976308E0,-2.029926695E0,-1.074091415E0,3.314552988E0
1.383084054E1,1.786965237E0,-1.328773910E0,-6.850504303E-1,2.329845264E0
1.384077054E1,1.133526608E0,-7.124893668E-1,-2.654472550E-1,1.364912420E0
1.385069954E1,5.396752006E-1,-6.605221281E-2,2.412713389E-1,5.948311322E-1
1.386062888E1,2.055553579E-1,6.794762796E-1,8.088266301E-1,1.076169846E0
1.387055888E1,7.840940773E-2,1.356224833E0,1.429045472E0,1.971716205E0
1.388048787E1,2.089175069E-1,1.886583957E0,2.143455942E0,2.863083814E0
1.389041687E1,5.443208134E-1,2.384885429E0,2.780386126E0,3.703310771E0
1.390034687E1,9.934863782E-1,2.838640766E0,3.383342233E0,4.526798123E0
1.391027587E1,1.397234280E0,3.050508778E0,4.012779211E0,5.230704009E0
1.392020488E1,1.531799762E0,3.189687421E0,4.371081383E0,5.623777095E0
1.393013387E1,1.241525266E0,3.336300214E0,4.501127552E0,5.738678711E0
1.394006387E1,9.711599547E-1,3.220737306E0,4.171550996E0,5.358930692E0
1.394999287E1,5.175750643E-1,2.640571891E0,3.607702821E0,4.500669229E0
1.395992187E1,-1.493396419E-1,1.452451584E0,2.796167761E0,3.154436888E0
1.396985187E1,-9.531581318E-1,-6.800275259E-3,2.046896338E0,2.257950683E0
1.397978088E1,-1.785847834E0,-1.309914300E0,1.558601060E0,2.708203320E0
1.398970987E1,-2.543817721E0,-2.360526806E0,1.288548574E0,3.701817503E0
1.399963987E1,-2.995774747E0,-3.158235833E0,1.250582018E0,4.529136263E0
1.400956887E1,-3.174789593E0,-3.573819376E0,1.291693207E0,4.951761831E0
1.401949787E1,-3.452660390E0,-3.866414047E0,1.234812516E0,5.328675568E0
1.402942688E1,-3.706891479E0,-4.093841793E0,1.215647098E0,5.654943230E0
1.403935688E1,-3.786852154E0,-4.185769086E0,1.053755311E0,5.742065162E0
1.404928587E1,-3.917463748E0,-4.196084159E0,8.316260934E-1,5.800452262E0
1.405921487E1,-3.902218303E0,-4.121190974E0,5.212475543E-1,5.699405385E0
1.406914487E1,-3.335951135E0,-3.513236960E0,1.270016702E-1,4.846393848E0
1.407907387E1,-2.889931372E0,-2.082941060E0,-9.844730414E-2,3.563711362E0
1.408900288E1,-2.948402359E0,-7.955480419E-1,-1.195353605E-2,3.053869029E0
1.409893187E1,-2.701968532E0,1.850561893E-1,2.431867953E-1,2.719194653E0
1.410886187E1,-2.939284796E0,5.360907112E-1,1.885749340E-1,2.993718235E0
1.411879087E1,-3.218205169E0,7.500388701E-1,-5.609709062E-2,3.304928093E0
1.412871987E1,-3.194015822E0,1.010595185E0,-1.882867394E-1,3.355367580E0
1.413864987E1,-2.981371885E0,1.310195405E0,-1.462195677E-1,3.259842094E0
1.414857887E1,-2.920352681E0,1.615710669E0,-1.612773174E-1,3.341405561E0
1.415850787E1,-2.928614212E0,1.686669408E0,-2.378401744E-1,3.387949652E0
1.416843787E1,-2.896139946E0,1.496977254E0,-2.813411017E-1,3.272265317E0
1.417836687E1,-2.602660591E0,1.203208681E0,-2.633340712E-1,2.879391970E0
1.418829587E1,-2.015045823E0,9.791351914E-1,-2.011102680E-1,2.249346735E0
1.419822487E1,-1.368230921E0,7.875181337E-1,-1.332263967E-1,1.584294776E0
1.420815487E1,-6.871963584E-1,7.605154726E-1,-5.701612674E-2,1.026583391E0
1.421808387E1,9.348528385E-3,8.730028917E-1,6.169280291E-2,8.752299388E-1
1.422801287E1,7.663466084E-1,1.083322561E0,2.690175283E-1,1.353973901E0
1.423794287E1,1.649824641E0,1.370024262E0,3.648640640E-1,2.175319197E0
1.424787187E1,2.700361717E0,1.726143961E0,3.461890805E-1,3.223565302E0
1.425780087E1,3.441400407E0,2.293470937E0,2.544323798E-1,4.143426304E0
1.426772987E1,3.821882823E0,2.901249828E0,-2.904417264E-1,4.807119228E0
1.427765987E1,3.668524974E0,3.799371335E0,-2.316072472E0,5.766930702E0
1.428758887E1,3.199957763E0,4.639402508E0,-4.509397269E0,7.217925537E0
1.429751787E1,3.559239344E0,4.544609787E0,-5.150901146E0,7.736500852E0
1.430744787E1,3.773244513E0,4.104306847E0,-5.308309361E0,7.698107373E0
1.431737687E1,3.905961691E0,3.640308942E0,-5.336929142E0,7.549251526E0
1.432730587E1,4.117257260E0,3.431345827E0,-5.729122946E0,7.845303771E0
1.433723587E1,3.693148184E0,3.124892963E0,-5.208121998E0,7.108363685E0
1.434716487E1,2.684719831E0,2.121963916E0,-3.868838303E0,5.165109994E0
1.435709387E1,1.778693181E0,9.037276711E-1,-2.401184689E0,3.121884214E0
1.436702387E1,1.053108682E0,-1.104442923E-1,-9.406918681E-1,1.416381668E0
1.437695287E1,5.966726893E-1,-8.738862598E-1,5.509153032E-1,1.192980790E0
1.438688187E1,2.875496936E-1,-1.319115187E0,2.024246417E0,2.433171441E0
1.439681087E1,-2.484148639E-1,-1.593201374E0,2.877770333E0,3.298721366E0
1.440674087E1,-5.925235051E-1,-2.011903091E0,2.890297408E0,3.571086286E0
1.441666988E1,-2.442036992E-1,-2.678958277E0,2.653609135E0,3.778636571E0
1.442659887E1,4.969361472E-1,-3.273997839E0,2.350316691E0,4.060787600E0
1.443652887E1,1.386691750E0,-3.835370302E0,2.048748444E0,4.564027777E0
1.444645787E1,2.590385531E0,-4.478403811E0,1.725641978E0,5.453809506E0
1.445638687E1,3.868091614E0,-5.070946319E0,1.501049255E0,6.552081972E0
1.446631588E1,4.951768954E0,-5.480720946E0,1.495111992E0,7.536158022E0
1.447624588E1,5.504747740E0,-5.422589682E0,1.873032743E0,7.950784754E0
1.448617487E1,5.041386305E0,-4.916944692E0,2.430563586E0,7.449802704E0
1.449610387E1,3.378452207E0,-4.084279841E0,2.734416486E0,5.964253067E0
1.450603387E1,1.440358080E0,-2.784676813E0,2.609196024E0,4.078843003E0
1.451596287E1,3.670940459E-2,-1.430850215E0,2.413135960E0,2.805691551E0
1.452589188E1,-8.605604553E-1,-3.151179998E-1,2.437355127E0,2.603951548E0
1.453582188E1,-1.567469532E0,5.772818604E-1,2.527169529E0,3.029323506E0
1.454575087E1,-2.204852291E0,1.356686763E0,2.463352432E0,3.573524563E0
1.455567987E1,-2.816379831E0,1.944154181E0,2.410825140E0,4.186144848E0
1.456560887E1,-3.421241546E0,2.374548575E0,2.465697166E0,4.839735237E0
1.457553887E1,-4.110678558E0,2.569107513E0,2.485896957E0,5.447722029E0
1.458546788E1,-4.554643024E0,2.700145078E0,2.516788967E0,5.862574795E0
1.459539687E1,-4.757037962E0,2.731236770E0,2.363646880E0,5.972929854E0
1.460532687E1,-4.675362884E0,2.399589715E0,1.909383128E0,5.591314052E0
1.461525587E1,-4.419702736E0,1.637037657E0,1.341932484E0,4.900453791E0
1.462518487E1,-4.419954751E0,8.505799160E-1,7.677183652E-1,4.566057126E0
1.463511487E1,-4.456411555E0,2.201261808E-1,4.587158221E-1,4.485362827E0
1.464504388E1,-4.427356156E0,-2.128765470E-1,3.514726245E-1,4.446384145E0
1.465497287E1,-4.371714052E0,-4.218255924E-1,4.499496764E-1,4.415005696E0
1.466490187E1,-4.328232402E0,-5.146626758E-1,6.070649457E-1,4.400795524E0
1.467483187E1,-4.457239521E0,-7.030483063E-1,5.951910049E-1,4.551429820E0
1.468476087E1,-4.476975628E0,-8.582594298E-1,4.491421759E-1,4.580572968E0
1.469468988E1,-4.338103672E0,-1.046636107E0,2.867766917E-1,4.471781689E0
1.470461988E1,-4.109350655E0,-1.304450516E0,3.374428153E-2,4.311553390E0
1.471454887E1,-3.616857222E0,-1.405646669E0,-2.312795619E-1,3.887285552E0
1.472447787E1,-2.949979938E0,-1.483394465E0,-3.453892179E-1,3.319960013E0
1.473440787E1,-2.193445542E0,-1.546468965E0,-3.906138130E-1,2.712074622E0
1.474433687E1,-1.378279361E0,-1.619802697E0,-5.352165525E-1,2.193141931E0
1.475426588E1,-5.712817401E-1,-1.737103544E0,-9.147582241E-1,2.044669694E0
1.476419487E1,1.925909114E-1,-1.816905612E0,-1.361760246E0,2.278733909E0
1.477412487E1,9.996353102E-1,-1.817287874E0,-1.654510453E0,2.653151109E0
1.478405387E1,1.750774480E0,-1.720066658E0,-2.144789107E0,3.259441808E0
1.479398287E1,2.389027305E0,-1.617886418E0,-2.770490298E0,4.000078051E0
1.480391287E1,3.063711206E0,-1.686518258E0,-3.376349548E0,4.861111649E0
1.481384188E1,3.900588684E0,-1.930965786E0,-4.010477747E0,5.918374161E0
1.482377087E1,5.130682644E0,-2.406696129E0,-4.733333935E0,7.383802596E0
1.483370087E1,6.442770354E0,-2.971292162E0,-5.433920417E0,8.936742026E0
1.484362987E1,6.997239010E0,-3.879326454E0,-6.342465463E0,1.020967167E1
1.485355887E1,6.207687142E0,-4.783087015E0,-7.092069154E0,1.056933044E1
1.486348704E1,4.565202511E0,-5.031100468E0,-6.993977433E0,9.750321340E0
1.487341704E1,2.966429910E0,-4.826967153E0,-6.358671606E0,8.516573424E0
1.488334604E1,1.785508111E0,-4.560563330E0,-5.324366984E0,7.234339008E0
1.489327504E1,1.498569451E0,-4.177400551E0,-3.695640267E0,5.775304559E0
1.490320504E1,1.749678127E0,-3.808799677E0,-2.051490934E0,4.666577288E0
1.491313404E1,1.787057623E0,-3.351697687E0,-8.899403751E-1,3.901210864E0
1.492306304E1,1.377364857E0,-2.531030445E0,-2.794640907E-1,2.895055999E0
1.493299304E1,1.059502612E0,-1.714220319E0,-5.237935781E-3,2.015223195E0
1.494292204E1,1.094442065E0,-9.940209599E-1,3.753862748E-1,1.525383872E0
1.495285104E1,1.183798045E0,-3.070436528E-1,7.359736852E-1,1.427343995E0
1.496278004E1,1.289312806E0,4.525066638E-1,1.172545663E0,1.800542453E0
1.497271004E1,1.472573900E0,1.214233241E0,1.794215784E0,2.619550827E0
1.498263904E1,1.635957969E0,1.867544838E0,2.510897312E0,3.531102875E0
1.499256804E1,1.879027893E0,2.632279077E0,3.158145493E0,4.520345332E0
1.500249804E1,2.023686839E0,3.268465203E0,3.773796490E0,5.386994817E0
1.501242704E1,2.081241567E0,3.636890953E0,4.283315261E0,5.992105797E0
1.502235604E1,1.871322432E0,3.724483997E0,4.353750821E0,6.027335639E0
1.503228604E1,1.620849933E0,3.745058595E0,3.967482585E0,5.691531995E0
1.504221504E1,1.302218195E0,3.293674012E0,3.490045733E0,4.972371662E0
1.505214404E1,8.874746042E-1,2.252846529E0,2.993959186E0,3.850548047E0
1.506207304E1,5.053005892E-1,8.734261570E-1,2.575230718E0,2.765866083E0
1.507200304E1,-2.524102664E-1,-5.239903370E-1,2.172400829E0,2.248911331E0
1.508193204E1,-1.449301397E0,-1.761367735E0,1.860393986E0,2.943459974E0
1.509186104E1,-2.550441447E0,-2.766632305E0,1.613692941E0,4.094265599E0
1.510179104E1,-3.108692082E0,-3.356140401E0,1.491584952E0,4.811701417E0
1.511172004E1,-3.218435549E0,-3.427098995E0,1.371143419E0,4.897281815E0
1.512164904E1,-3.374482532E0,-3.353593354E0,1.234954165E0,4.915163531E0
1.513157904E1,-3.642520067E0,-3.414941756E0,1.182637957E0,5.131121922E0
1.514150804E1,-3.888938107E0,-3.553152100E0,1.233071362E0,5.410101148E0
1.515143704E1,-4.081920782E0,-3.665321285E0,1.198163484E0,5.615358682E0
1.516136604E1,-4.083044617E0,-3.787480145E0,1.186360880E0,5.694182235E0
1.517129604E1,-3.524606870E0,-3.555476076E0,1.207319055E0,5.149940098E0
1.518122504E1,-2.872289153E0,-2.841445968E0,1.039230316E0,4.171793357E0
1.519115404E1,-2.502489601E0,-2.114036261E0,9.513308769E-1,3.411251083E0
1.520108404E1,-2.035634454E0,-1.350971548E0,9.750115156E-1,2.630509307E0
1.521101304E1,-1.960595382E0,-8.559383775E-1,8.497980702E-1,2.301895201E0
1.522094204E1,-2.139749976E0,-4.980651715E-1,7.214014006E-1,2.312362181E0
1.523087204E1,-2.241334823E0,-2.425491565E-1,5.318814468E-1,2.316313830E0
1.524080104E1,-2.327474835E0,-5.300603315E-2,3.289572994E-1,2.351204298E0
1.525073004E1,-2.399976801E0,1.015634315E-1,1.035413253E-1,2.404355336E0
1.526065904E1,-2.497186176E0,3.034368709E-2,-8.490504306E-2,2.498813399E0
1.527058904E1,-2.595305963E0,-2.507269992E-1,-1.503225223E-1,2.611718578E0
1.528051804E1,-2.537981615E0,-6.122332996E-1,-1.196199624E-1,2.613520466E0
1.529044704E1,-2.204925381E0,-8.810930993E-1,9.679597735E-2,2.376423878E0
1.530037704E1,-1.750263433E0,-9.200628912E-1,3.621987569E-1,2.010255145E0
1.531030604E1,-1.158391893E0,-7.124117450E-1,5.854490320E-1,1.480592058E0
1.532023504E1,-5.991396296E-1,-5.027415553E-1,7.840730274E-1,1.107469132E0
1.533016504E1,-1.695382637E-1,-2.745896325E-1,8.026016843E-1,8.650503759E-1
1.534009404E1,1.522521400E-1,-2.346853092E-2,5.799585696E-1,6.000695197E-1
1.535002304E1,4.573873347E-1,3.366534412E-1,2.305731817E-1,6.129459238E-1
1.535995204E1,8.973651695E-1,8.815556140E-1,4.324249864E-2,1.258679650E0
1.536988204E1,1.372977106E0,1.588732639E0,5.928733148E-2,2.100631457E0
1.537981104E1,1.829920052E0,2.431041888E0,2.405895352E-2,3.042885291E0
1.538974004E1,2.187942728E0,3.232803327E0,-2.155352394E-1,3.909548078E0
1.539967004E1,2.611578764E0,4.021769890E0,-8.742313186E-1,4.874346837E0
1.540959904E1,2.799498920E0,4.966525573E0,-2.370395737E0,6.174329633E0
1.541952804E1,2.663822467E0,5.881677387E0,-4.451836109E0,7.842762509E0
1.542945804E1,2.731137367E0,6.135672249E0,-5.546233150E0,8.710125569E0
1.543938704E1,2.789345230E0,5.963458300E0,-5.689678799E0,8.701478411E0
1.544931604E1,2.828324524E0,5.683282530E0,-5.915450320E0,8.677077412E0
1.545924504E1,2.936082861E0,5.285819800E0,-5.813036923E0,8.387602267E0
1.546917504E1,2.855708789E0,4.475323205E0,-5.049868276E0,7.326988473E0
1.547910404E1,2.423202526E0,2.938813511E0,-3.677715043E0,5.294725986E0
1.548903304E1,1.634341214E0,1.444001334E0,-2.010144103E0,2.965955220E0
1.549896304E1,9.254733199E-1,-1.045789137E-2,-4.971630192E-1,1.050609966E0
1.550889204E1,6.655289161E-1,-1.235857852E0,9.643649054E-1,1.703018802E0
1.551882104E1,7.441540861E-1,-2.115930905E0,2.147998059E0,3.105611785E0
1.552875104E1,8.760947531E-1,-2.902381264E0,2.806647141E0,4.131419513E0
1.553868004E1,9.751465863E-1,-3.669275172E0,3.000640215E0,4.839249203E0
1.554860904E1,1.205657861E0,-4.247654847E0,2.749088320E0,5.201314177E0
1.555853904E1,1.726526662E0,-4.568298612E0,2.289580200E0,5.393739335E0
1.556846804E1,2.382716405E0,-4.831394080E0,1.990872849E0,5.743107253E0
1.557839704E1,2.945683404E0,-5.127469014E0,2.023618426E0,6.250041659E0
1.558832604E1,3.170694203E0,-5.631403109E0,1.831163170E0,6.717079816E0
1.559825604E1,3.526690233E0,-5.829553553E0,1.729987044E0,7.029515901E0
1.560818504E1,3.642691975E0,-5.653883314E0,1.661762316E0,6.927990715E0
1.561811404E1,2.952206558E0,-5.328541312E0,1.533313606E0,6.281713674E0
1.562804404E1,1.599210557E0,-5.048292452E0,1.194337651E0,5.428551695E0
1.563797304E1,3.696077639E-1,-4.484093444E0,6.086922258E-1,4.540287451E0
1.564790204E1,-4.956673014E-1,-3.751856568E0,5.236947602E-1,3.820519596E0
1.565783204E1,-1.415151318E0,-3.026127935E0,6.708906667E-1,3.407374036E0
1.566776104E1,-2.434801063E0,-2.590372667E0,7.485126007E-1,3.632981955E0
1.567769004E1,-3.166857260E0,-1.999497200E0,9.257936011E-1,3.857987526E0
1.568761904E1,-3.708137521E0,-1.334268831E0,1.343636216E0,4.163642092E0
1.569754904E1,-4.102342182E0,-6.179871791E-1,1.754248165E0,4.504276430E0
1.570747804E1,-4.410527869E0,-1.000190357E-1,1.987998066E0,4.838894110E0
1.571740704E1,-4.458861539E0,1.849477234E-1,1.866423635E0,4.837270828E0
1.572733704E1,-4.298883473E0,5.405681435E-1,1.836883794E0,4.706033904E0
1.573726604E1,-4.278421142E0,1.078598449E0,1.876246957E0,4.794639165E0
1.574719504E1,-4.390447361E0,1.339958756E0,1.764539410E0,4.917836601E0
1.575712504E1,-4.242842588E0,1.323255600E0,1.643535229E0,4.738557445E0
1.576705404E1,-3.681965384E0,9.980309804E-1,1.136941382E0,3.980649524E0
1.577698304E1,-3.203628060E0,6.791557791E-1,6.727844337E-1,3.343220635E0
1.578691204E1,-2.928504285E0,5.209674361E-1,4.638395910E-1,3.010430464E0
1.579684204E1,-2.686567551E0,4.350261202E-1,2.918778026E-1,2.737167438E0
1.580677104E1,-2.545422782E0,4.778812043E-1,4.291141467E-1,2.625202189E0
1.581670004E1,-2.492229491E0,5.691878521E-1,5.963832521E-1,2.625043930E0
1.582663004E1,-2.553747463E0,4.100819714E-1,5.768257776E-1,2.650004020E0
1.583655904E1,-2.499540850E0,1.947619826E-1,2.027516180E-1,2.515302151E0
1.584648804E1,-2.313933268E0,4.596876293E-2,-3.101766640E-1,2.335082410E0
1.585641804E1,-2.133409840E0,-1.510777633E-1,-7.777435626E-1,2.275773953E0
1.586634792E1,-1.832318580E0,-3.735400164E-1,-1.038308210E0,2.138926708E0
1.587627692E1,-1.337716641E0,-5.031043750E-1,-1.155954189E0,1.838159381E0
1.588620692E1,-7.642965746E-1,-6.161208209E-1,-1.180629512E0,1.535460896E0
1.589613592E1,1.776606309E-1,-8.413289630E-1,-1.480635456E0,1.712214670E0
1.590606492E1,1.368979949E0,-1.164822441E0,-2.514767584E0,3.091112004E0
1.591599392E1,1.949027250E0,-1.024927441E0,-5.024981357E0,5.486312160E0
1.592592392E1,1.870023766E0,1.499371908E-1,-1.176231631E1,1.191098464E1
1.593585292E1,2.198712714E0,9.079828361E-1,-1.203496730E1,1.226781188E1
1.594578192E1,3.080617846E0,1.374475016E-1,-8.415950698E0,8.963109075E0
1.595571192E1,3.971800169E0,-1.052062323E0,-6.239539849E0,7.470869377E0
1.596564092E1,4.761437992E0,-2.427513678E0,-4.967932413E0,7.296880626E0
1.597556992E1,5.209051121E0,-3.200645688E0,-4.465467138E0,7.570914288E0
1.598549992E1,4.629316061E0,-3.563072194E0,-3.840278163E0,6.990978974E0
1.599542892E1,3.532410564E0,-3.759269376E0,-3.000523855E0,5.967677441E0
1.600535792E1,2.571869153E0,-3.882791221E0,-2.070739968E0,5.096915011E0
1.601528792E1,2.317767872E0,-3.906365148E0,-1.134777328E0,4.681821885E0
1.602521692E1,2.532553645E0,-3.602403490E0,-2.676528247E-1,4.411663734E0
1.603514592E1,2.837830927E0,-2.801859148E0,2.930718040E-1,3.998698556E0
1.604507492E1,2.699285830E0,-1.841783468E0,5.858220112E-1,3.319864118E0
1.605500492E1,2.505843564E0,-9.240287653E-1,7.276567519E-1,2.768133933E0
1.606493392E1,2.373124632E0,-1.588405086E-1,7.940927430E-1,2.507495586E0
1.607486292E1,2.291366524E0,4.329757575E-1,1.085758803E0,2.572294838E0
1.608479292E1,2.305843061E0,1.107702673E0,1.533304543E0,2.982438642E0
1.609472192E1,2.406963054E0,1.742068853E0,2.061201843E0,3.616189717E0
1.610465092E1,2.610438557E0,2.268570277E0,2.489428090E0,4.261226675E0
1.611458092E1,2.631890237E0,2.698961309E0,3.055523350E0,4.852572649E0
1.612450992E1,2.417359403E0,2.994121739E0,3.450770570E0,5.168772485E0
1.613443892E1,2.305833705E0,3.429932263E0,3.757983865E0,5.586031430E0
1.614436892E1,2.049033934E0,3.929848444E0,4.046022386E0,6.001045409E0
1.615429792E1,1.291328925E0,4.271636617E0,4.122235872E0,6.075132786E0
1.616422692E1,3.802374172E-1,4.255555020E0,4.177353188E0,5.975333353E0
1.617415592E1,-1.453524256E-1,3.535586187E0,3.975892636E0,5.322520011E0
1.618408592E1,-9.100577205E-1,2.509177354E0,3.151382019E0,4.129816543E0
1.619401492E1,-2.089182671E0,1.596662341E0,2.219422821E0,3.440908677E0
1.620394392E1,-3.167567112E0,5.426458785E-1,1.832931222E0,3.699673340E0
1.621387392E1,-3.551036285E0,-3.843544052E-1,1.829059488E0,4.012860030E0
1.622380292E1,-3.442778011E0,-1.066963952E0,1.993853760E0,4.119051508E0
1.623373192E1,-3.352121610E0,-1.631635122E0,2.232574379E0,4.345496613E0
1.624366192E1,-3.384370174E0,-2.017298756E0,2.381850871E0,4.603984070E0
1.625359092E1,-3.497611445E0,-2.150653279E0,2.319981043E0,4.716026653E0
1.626351992E1,-3.780179311E0,-2.099755021E0,2.018228463E0,4.771998837E0
1.627344892E1,-3.999338801E0,-1.742694213E0,1.641002216E0,4.660963660E0
1.628337892E1,-4.037141635E0,-1.098281054E0,1.162697783E0,4.342418679E0
1.629330792E1,-4.182231520E0,-6.458968896E-1,5.666054294E-1,4.269576676E0
1.630323692E1,-4.408167933E0,-4.168152595E-1,4.744796231E-2,4.428084326E0
1.631316692E1,-4.626681890E0,-4.043112811E-1,-2.898388785E-1,4.653349278E0
1.632309592E1,-4.735467584E0,-4.254349324E-1,-5.428351090E-1,4.785427679E0
1.633302492E1,-4.783480825E0,-3.960731390E-1,-7.097784515E-1,4.852045774E0
1.634295492E1,-4.751856744E0,-3.060044015E-1,-8.931184099E-1,4.844733399E0
1.635288392E1,-4.794858922E0,-2.793884423E-1,-1.177191861E0,4.945150217E0
1.636281292E1,-4.844062657E0,-3.102702194E-1,-1.422726971E0,5.058197571E0
1.637274292E1,-4.742328122E0,-3.862963021E-1,-1.655843765E0,5.037928088E0
1.638267192E1,-4.435779655E0,-4.427909303E-1,-1.788809448E0,4.803336778E0
1.639260092E1,-3.772535831E0,-3.989432448E-1,-1.809423223E0,4.202998299E0
1.640252992E1,-2.873414158E0,-3.004375416E-1,-1.766765445E0,3.386477783E0
