"Time (s)","Linear Acceleration x (m/s^2)","Linear Acceleration y (m/s^2)","Linear Acceleration z (m/s^2)","Absolute acceleration (m/s^2)"
8.431000024E-3,1.329839857E0,1.567221610E0,-3.122113196E0,3.737947088E0
1.836100002E-2,1.212187446E0,1.138627135E0,-2.497950992E0,3.000938073E0
2.829000002E-2,1.317683204E0,6.425698239E-1,-1.531440158E0,2.120022161E0
3.822000002E-2,1.388623378E0,7.219615638E-2,-4.718375587E-1,1.468372518E0
4.814900001E-2,1.210159047E0,-4.404812801E-1,4.026667517E-1,1.349314341E0
5.807900001E-2,7.738933173E-1,-6.929739922E-1,1.178919713E0,1.571297397E0
6.800800000E-2,3.506928983E-1,-5.400500071E-1,1.941546323E0,2.045541895E0
7.793800000E-2,6.813614219E-2,-1.494574633E-1,2.034999447E0,2.041617696E0
8.786800000E-2,-1.492987114E-1,2.611267108E-1,1.645226975E0,1.672497852E0
9.779700002E-2,-3.018309331E-1,6.081440493E-1,9.223222554E-1,1.145259551E0
1.077270000E-1,-3.485425848E-1,8.188250765E-1,-8.364909768E-2,8.938420503E-1
1.176560000E-1,-1.615778643E-1,9.118273804E-1,-1.172210618E0,1.493858865E0
1.275860000E-1,2.051045376E-1,1.081073868E0,-1.960939783E0,2.248571416E0
1.375150000E-1,7.125346828E-1,1.363345572E0,-2.391381394E0,2.843434858E0
1.474450000E-1,1.285010424E0,1.629961942E0,-2.401974794E0,3.174509511E0
1.573750000E-1,1.517496888E0,1.657512560E0,-2.045505724E0,3.038788962E0
1.673040000E-1,9.825760585E-1,1.311729861E0,-1.441295389E0,2.182526824E0
1.772340000E-1,3.481274325E-1,9.120136142E-1,-7.328385544E-1,1.220661250E0
1.871630000E-1,1.124846417E-1,5.617560410E-1,-2.345177865E-1,6.190486544E-1
1.970930000E-1,1.303475931E-1,3.630615136E-1,-2.142419815E-2,3.863458994E-1
2.070220000E-1,3.394767693E-1,2.887963200E-1,-1.690289712E-1,4.766745057E-1
2.169520000E-1,3.770375285E-1,3.607588801E-1,-5.742275673E-1,7.759133756E-1
2.268820000E-1,3.671358535E-1,5.411907989E-1,-1.018838736E0,1.210664522E0
2.368110000E-1,4.946187495E-1,7.898518306E-1,-1.294160732E0,1.594793285E0
2.467410000E-1,3.557906471E-1,1.091438935E0,-1.377914495E0,1.793453174E0
2.566700000E-1,7.333329365E-2,6.221507621E-1,-1.121917546E0,1.284970164E0
2.666000000E-1,1.352855667E-2,1.058040516E0,-1.131187137E0,1.548940636E0
2.765290000E-1,6.055683509E-1,1.399475518E0,-1.592083386E0,2.204534931E0
2.864590000E-1,1.319097937E0,6.715085712E-1,-8.412248826E-1,1.702528247E0
2.963890000E-1,1.630134288E0,-1.089387147E0,-5.398576337E-1,2.033604784E0
3.063180000E-1,2.220459386E0,-1.859710739E0,-2.261480820E-1,2.905186203E0
3.162480000E-1,2.472680495E0,-1.324223607E0,-8.892831481E-1,2.942539976E0
3.261770000E-1,1.565667712E0,-1.095417673E0,-2.543145876E0,3.181013393E0
3.361070000E-1,4.487337479E-1,-1.474069325E0,-3.426413993E0,3.756934283E0
3.460360000E-1,-5.942322077E-1,-1.928049780E0,-3.450611526E0,3.997149956E0
3.559660000E-1,3.278463650E-1,-2.425394062E0,-2.491538935E0,3.492532872E0
3.658960000E-1,2.370451285E0,-2.843048690E0,-1.708385675E0,4.076830480E0
3.758250000E-1,2.443704180E0,-2.999906389E0,-1.025764763E0,4.002914165E0
3.857550000E-1,1.180266254E0,-3.373744321E0,-7.849185348E-2,3.575100019E0
3.956840000E-1,2.679888569E-3,-3.231160845E0,1.046166868E0,3.396302799E0
4.056140000E-1,-1.098016395E0,-2.334791894E0,3.920501377E0,4.693316976E0
4.155430000E-1,-1.187144991E0,-1.840853468E0,2.466706395E0,3.298893021E0
4.254730000E-1,-5.097523668E-1,-1.089637261E0,8.966746134E-1,1.500394015E0
4.354030000E-1,-7.126462184E-1,-1.204447926E0,4.332693243E-1,1.465019367E0
4.453320000E-1,-3.565485924E0,-3.794898507E0,-2.223248801E0,5.661870697E0
4.552623750E-1,-7.987432237E0,-5.364336796E0,-5.418612991E0,1.104248839E1
4.651913750E-1,-5.506024772E0,-4.721724873E0,-5.811375144E0,9.294249600E0
4.751213750E-1,-3.754512373E0,-4.096514847E0,-4.850482315E0,7.375972868E0
4.850503750E-1,-5.000486201E0,-4.525492900E0,-5.078499752E0,8.442517869E0
4.949803750E-1,-4.716576984E0,-5.458175837E0,-4.155798597E0,8.325169301E0
5.049103750E-1,-3.570337359E0,-5.861225581E0,-1.232000152E0,6.972739673E0
5.148393750E-1,-3.260899783E0,-6.258450914E0,1.130971960E0,7.147081419E0
5.247693750E-1,-2.921019264E0,-7.253820096E0,2.187411216E0,8.120038630E0
5.346983750E-1,-2.687849261E0,-7.903277940E0,2.560094615E0,8.731576048E0
5.446283750E-1,-2.764768213E0,-8.461654290E0,2.444309220E0,9.231369571E0
5.545573750E-1,-2.546538430E0,-9.048025355E0,2.737708468E0,9.790131177E0
5.644873750E-1,-9.708243245E-1,-8.312958426E0,1.809515024E0,8.562833777E0
5.744173750E-1,4.917987835E-1,-6.373490789E0,-8.221623749E-1,6.445091299E0
5.843463750E-1,1.107456213E0,-5.764258865E0,-7.434635299E-1,5.916576506E0
5.942763750E-1,1.433796335E0,-6.735563246E0,-5.386098379E-1,6.907509300E0
6.042053750E-1,3.205714347E0,-6.489560359E0,2.225777721E-1,7.241584011E0
6.141353750E-1,5.812497225E0,-5.867551684E0,2.875367128E0,8.745342925E0
6.240653750E-1,7.669171212E0,-5.621618378E0,5.049022769E0,1.076621620E1
6.339943750E-1,9.328866538E0,-5.030744373E0,6.300912809E0,1.233035450E1
6.439243750E-1,1.012267869E1,-3.990041143E0,6.456276838E0,1.265197861E1
6.538533750E-1,9.956358147E0,-3.297344894E0,5.353191419E0,1.177532204E1
6.637833750E-1,9.283048925E0,-2.614593881E0,3.867089986E0,1.039064404E1
6.737123750E-1,7.841778679E0,-2.050719394E0,2.429151483E0,8.461661765E0
6.836423750E-1,6.046609215E0,-1.809051924E0,1.383366439E0,6.461257971E0
6.935723750E-1,4.834515324E0,-1.941250454E0,6.044202501E-1,5.244646373E0
7.035013750E-1,4.260316408E0,-2.101607712E0,5.410668379E-1,4.781192758E0
7.134313750E-1,4.114422530E0,-1.770545963E0,9.385868704E-1,4.576488946E0
7.233603750E-1,3.403376548E0,-1.121595072E0,1.631170853E0,3.937215487E0
7.332903750E-1,3.136863382E0,-7.867522216E-1,2.151526853E0,3.884322172E0
7.432193750E-1,2.924210089E0,-5.762688303E-1,2.439461879E0,3.851501612E0
7.531493750E-1,3.563094413E0,4.353260824E-1,6.392947984E-1,3.646073016E0
7.630793750E-1,4.970647860E0,3.027557580E0,-5.605013455E0,8.080199309E0
7.730083750E-1,6.174636340E0,5.600496481E0,-1.137054234E1,1.409896903E1
7.829383750E-1,4.707499766E0,7.644288386E0,-1.223718857E1,1.517710391E1
7.928673750E-1,4.119338869E0,7.157435762E0,-7.544337251E0,1.118547558E1
8.027973750E-1,5.537557636E0,3.346258607E0,4.002249545E-1,6.482451022E0
8.127263750E-1,4.533804132E0,1.771791420E0,9.249826216E0,1.045245951E1
8.226563750E-1,3.122704350E0,3.352413386E0,1.086529028E0,4.708556392E0
8.325863750E-1,5.470871311E-1,3.876319816E0,-3.800474704E0,5.456076211E0
8.425153750E-1,8.807561535E-1,2.469114571E0,-3.598791665E-1,2.646086012E0
8.524453750E-1,4.052067822E-1,3.030307817E-1,1.860320311E0,1.927903486E0
8.623743750E-1,-2.851049142E0,1.269686626E0,-2.628161468E0,4.080173776E0
8.723043750E-1,-5.159250385E0,2.710067511E0,-6.196526561E0,8.506425329E0
8.822333750E-1,-3.840542457E0,1.777412056E0,-4.330775649E0,6.055128215E0
8.921633750E-1,-2.593920173E0,2.396955837E0,-1.777021608E0,3.953684983E0
9.020933750E-1,-1.807126436E0,3.006747047E0,-4.068998435E-1,3.531543748E0
9.120223750E-1,-1.835083144E0,3.206635868E0,2.509087014E-1,3.703106657E0
9.219523750E-1,-3.280048245E0,3.530074017E0,-2.595500091E-1,4.825712928E0
9.318813750E-1,-5.010211290E0,3.456509027E0,-9.594031043E-1,6.161990437E0
9.418113750E-1,-5.732019657E0,2.692277357E0,-1.350529353E0,6.475209359E0
9.517413750E-1,-5.233545107E0,2.207265144E0,-1.635385673E0,5.910710626E0
9.616703750E-1,-4.161928818E0,3.385623232E0,-1.588802513E0,5.595390030E0
9.716003750E-1,-3.745156828E0,3.794264376E0,-1.000378491E0,5.424333964E0
9.815293750E-1,-5.219052199E0,4.647550603E0,-1.639478724E0,7.178169888E0
9.914593750E-1,-7.067648842E0,5.604051588E0,-2.130999764E0,9.268128957E0
1.001388375E0,-7.111106519E0,7.435467943E0,-1.554340194E0,1.040528678E1
1.011318375E0,-3.019291663E0,6.324449022E0,-2.083690381E-1,7.011290554E0
1.021248375E0,-4.007080514E0,5.009340640E0,-1.891974798E-1,6.417630683E0
1.031177375E0,-4.798398827E0,3.420864109E0,-1.700294298E-1,5.895409448E0
1.041107375E0,-2.730332791E0,1.599973619E0,-7.657759202E-1,3.255924675E0
1.051036375E0,-1.300599101E0,7.355031306E-1,-7.120768458E-1,1.655166551E0
1.060966375E0,2.566211972E0,7.724411613E-1,2.861261305E0,3.920322115E0
1.070895375E0,6.361694616E0,6.734302586E-1,7.847292604E0,1.012445889E1
1.080825375E0,6.413234314E0,-7.301845032E-1,8.500118444E0,1.067308565E1
1.090755375E0,5.211787033E0,-3.716943720E0,4.981947019E0,8.111608398E0
1.100684375E0,7.890770745E-1,-6.576322514E0,2.829666460E-1,6.629534717E0
1.110614375E0,-4.570946231E0,-9.046111561E0,-3.570836127E0,1.074600179E1
1.120543375E0,-6.106102295E0,-1.063190685E1,-6.195976338E0,1.373725050E1
1.130473375E0,-3.586253480E0,-9.999283726E0,-5.765387378E0,1.208662818E1
1.140403375E0,-2.903148419E-1,-8.497676647E0,-3.082591866E0,9.044178443E0
1.150332375E0,2.351993964E0,-7.288602258E0,5.055841061E-1,7.675364081E0
1.160262375E0,4.196977029E0,-5.084839303E0,2.007045078E0,6.891910974E0
1.170191375E0,4.492308782E0,-1.048755722E0,2.801727294E0,5.397258803E0
1.180121375E0,6.303146446E0,5.704818410E-1,1.748630891E0,6.566034925E0
1.190050375E0,6.084019116E0,8.937925208E-1,-3.350501347E-1,6.158442357E0
1.199980375E0,2.261821713E0,9.760897422E-1,-2.291671164E0,3.364572093E0
1.209910375E0,4.247937852E-1,1.003605570E0,-2.767090727E0,2.973964524E0
1.219839375E0,-3.423872209E-1,7.926684344E-1,-2.095190977E0,2.266137129E0
1.229769375E0,-2.684985294E0,1.152640572E0,-1.211230842E0,3.163037539E0
1.239698375E0,-5.260096144E0,1.862797192E0,-2.426150107E-1,5.585471051E0
1.249628375E0,-4.578618947E0,2.350604666E0,1.722221941E0,5.427259177E0
1.259557375E0,-3.112857639E0,2.450765716E0,3.540194378E0,5.313107519E0
1.269487375E0,-3.817843566E0,1.923031407E0,4.432980008E0,6.158351325E0
1.279417375E0,-3.823612429E0,1.302937403E0,4.537622364E0,6.075168689E0
1.289346375E0,-3.774700470E0,8.621883202E-1,3.404705620E0,5.155943434E0
1.299276375E0,-4.464590056E0,8.054714978E-1,2.953381264E0,5.413299326E0
1.309205375E0,-4.629325417E0,1.010782442E0,2.400836341E0,5.311906447E0
1.319135375E0,-4.128772767E0,7.897524279E-1,1.595705298E0,4.496303910E0
1.329065375E0,-2.995870641E0,7.555976719E-1,5.014501246E-1,3.130115168E0
1.338994375E0,-1.188300986E0,1.117128092E0,-1.063092072E0,1.946843384E0
1.348924375E0,-3.109730548E-1,5.066197211E-1,-1.406026154E0,1.526524591E0
1.358853375E0,-4.318847036E-1,2.505496824E-1,-2.139577630E0,2.197064399E0
1.368783375E0,3.726980174E-1,-3.336403710E-1,-3.335061189E0,3.372366060E0
1.378712375E0,2.724713909E0,4.944405556E-2,-3.758542859E0,4.642537563E0
1.388642375E0,3.867048178E0,8.317956626E-1,-3.125682921E0,5.041412437E0
1.398572375E0,3.299831130E0,3.678220242E-1,-2.735349702E0,4.301896851E0
1.408501375E0,3.038335752E0,-7.961568832E-1,-1.733564955E0,3.587561481E0
1.418431375E0,3.534094563E0,-1.267982748E0,-1.184762836E0,3.937164919E0
1.428360375E0,4.327500331E0,-5.145502996E-1,2.201160213E-1,4.363538952E0
1.438290375E0,3.388426972E0,-4.089449072E-1,1.389846908E0,3.685152332E0
1.448219458E0,2.188417668E0,-1.173302293E-1,1.172984131E0,2.485725255E0
1.458149458E0,4.465574142E-1,2.916825056E-2,1.234927853E0,1.313510987E0
1.468079458E0,-4.023615271E-3,6.173355800E-1,1.405953648E0,1.535521106E0
1.478008458E0,5.804691777E-2,1.010152697E0,8.465954771E-1,1.319280796E0
1.487938458E0,-4.912551387E-1,-9.306486905E-2,-7.975947867E-1,9.413554721E-1
1.497867458E0,1.794754897E0,9.407734367E0,-4.360890856E0,1.052349657E1
1.507797458E0,-1.268336650E0,6.884679524E0,-6.032736695E0,9.241287900E0
1.517726458E0,-1.829642017E0,-1.215780560E0,2.428968283E-1,2.210138265E0
1.527656458E0,-1.611085083E0,-2.539795421E0,2.369772424E0,3.829096142E0
1.537586458E0,-2.254975500E0,-4.049374595E0,3.540653969E0,5.832544869E0
1.547515458E0,-2.927338350E0,-4.871303081E0,3.756799804E0,6.812668221E0
1.557445458E0,-2.393946713E0,-5.167658681E0,3.175094233E0,6.520498485E0
1.567374458E0,4.189978789E-1,-3.351998234E0,2.376507246E0,4.130283050E0
1.577304458E0,2.727203068E0,-1.124953421E0,7.106355071E-1,3.034494950E0
1.587234458E0,2.531986465E0,3.820845526E-1,-2.034541025E0,3.270520027E0
1.597163458E0,1.363927663E0,2.595216501E0,-3.389074259E0,4.481213194E0
1.607093458E0,1.530673150E0,3.392027103E0,-3.060962430E0,4.818537035E0
1.617022458E0,1.159521575E0,2.776907617E0,-2.807944053E0,4.115854226E0
1.626952458E0,-2.580043342E-1,1.547018895E0,-4.105106746E0,4.394511929E0
1.636881458E0,-2.664250775E0,-3.143170774E-1,-6.072562666E0,6.638753253E0
1.646811458E0,-5.426045972E0,-2.198403981E0,-7.891550764E0,9.826063729E0
1.656741458E0,-7.477763193E0,-3.599146006E0,-5.959850568E0,1.021717246E1
1.666670458E0,-7.450504058E0,-3.205314982E0,-2.516861472E0,8.492269810E0
1.676600458E0,-4.480395080E0,-1.289589964E0,-2.195913360E0,5.153544201E0
1.686529458E0,-2.398166503E0,-8.985188252E-1,-2.492738199E0,3.573833010E0
1.696459458E0,-1.580172023E0,-1.783764471E0,-1.730475286E0,2.945047373E0
1.706389458E0,-8.190607193E-1,-3.724903243E0,-1.045556711E0,3.954611670E0
1.716318458E0,-7.309306079E-1,-5.740644300E0,-1.161472206E0,5.902395634E0
1.726248458E0,-1.392559724E0,-6.790134140E0,-1.618098526E0,7.117821792E0
1.736177458E0,-1.260122336E0,-7.479208624E0,-2.452382763E0,7.971238998E0
1.746107458E0,-6.716649111E-2,-8.734208799E0,-3.396083609E0,9.371461922E0
1.756036458E0,1.011240060E0,-1.108293534E1,-3.588937060E0,1.169335416E1
1.765966458E0,2.143996224E0,-1.369496492E1,-3.573988068E0,1.431510303E1
1.775896458E0,3.646578327E0,-1.583774961E1,-3.296462549E0,1.658307907E1
1.785825458E0,5.082030886E0,-1.618440880E1,-2.673833192E0,1.717298780E1
1.795755458E0,4.838095574E0,-1.432727230E1,-2.057753302E0,1.526146287E1
1.805684458E0,3.416753224E0,-1.022701173E1,-9.165171397E-1,1.082155142E1
1.815614458E0,1.345427949E0,-5.603022478E0,-2.548225352E-1,5.767926125E0
1.825544458E0,-2.087316751E-1,-3.826934232E0,3.542404041E-2,3.832786113E0
1.835473458E0,-1.114660859E0,-2.877921776E0,2.188905180E-1,3.093996710E0
1.845403458E0,-1.442527982E0,-1.391423902E0,4.416779128E-1,2.052322302E0
1.855332458E0,-1.438673497E0,1.184581572E-1,8.938252652E-1,1.697862589E0
1.865262458E0,-1.181095754E0,1.630430596E0,1.644909471E0,2.599811200E0
1.875191458E0,-1.030565912E0,3.223702136E0,2.154453531E0,4.011981004E0
1.885121458E0,-8.731231982E-1,4.644294873E0,2.482740922E0,5.338147757E0
1.895051458E0,-5.886494324E-1,5.951707150E0,2.935787576E0,6.662445111E0
1.904980458E0,-3.130672351E-1,7.239535933E0,3.383301888E0,7.997225974E0
1.914910458E0,-5.439839224E-2,8.339586062E0,3.766688615E0,9.150934269E0
1.924839458E0,2.199053022E-1,9.159392594E0,3.968900535E0,9.984738478E0
1.934769458E0,6.325994441E-1,9.659700830E0,3.962145832E0,1.045985668E1
1.944699458E0,9.710678610E-1,9.978092247E0,3.832251105E0,1.073272781E1
1.954628458E0,1.153377832E0,1.027449579E1,3.704052072E0,1.098251092E1
1.964558458E0,1.133752603E0,1.049467621E1,3.426119878E0,1.109783407E1
1.974487458E0,1.137440150E0,1.061066158E1,3.133688929E0,1.112204637E1
1.984417458E0,1.121492965E0,1.064134309E1,2.804433385E0,1.106168051E1
1.994346458E0,1.133004233E0,1.055194150E1,2.320755215E0,1.086338220E1
2.004276458E0,1.123806636E0,1.055435757E1,1.789878466E0,1.076387802E1
2.014206458E0,1.163934030E0,1.067092298E1,9.989092322E-1,1.078059179E1
2.024135458E0,1.279194491E0,1.092138028E1,2.269549978E-1,1.099838144E1
2.034065458E0,1.524702704E0,1.119371552E1,-3.746252596E-1,1.130328844E1
2.043994458E0,1.634521600E0,1.144804484E1,-1.008712601E0,1.160805292E1
2.053924458E0,1.468151650E0,1.172372586E1,-1.522781017E0,1.191302141E1
2.063854458E0,1.270009685E0,1.182117321E1,-1.442854257E0,1.197643057E1
2.073783458E0,1.096756685E0,1.180041794E1,-7.587171614E-1,1.187553748E1
2.083713458E0,7.739517894E-1,1.193086230E1,-3.096872520E-1,1.195994911E1
2.093642458E0,4.875531203E-1,1.200997279E1,-3.030670345E-1,1.202368513E1
2.103572458E0,8.628613347E-1,1.099822205E1,-1.506632177E0,1.113442223E1
2.113501458E0,1.260593036E0,8.526646092E0,-3.080928333E0,9.153409626E0
2.123431458E0,5.944723821E-1,7.431057388E0,-2.005948141E0,7.719963683E0
2.133361458E0,-1.282312665E-3,7.190949664E0,-2.280543766E0,7.543914009E0
2.143290458E0,-8.369357307E-2,6.372126049E0,-1.830351431E0,6.630322870E0
2.153220458E0,-3.043487442E-1,4.589426941E0,2.463782787E-1,4.606101395E0
2.163149458E0,-1.359244335E0,2.549572551E0,2.165595839E0,3.610771482E0
2.173079458E0,-3.140681907E0,-1.060459802E0,3.944793634E0,5.152655107E0
2.183009458E0,-7.230464562E0,-1.302404371E1,3.945596165E0,1.541016098E1
2.192938458E0,-1.226938100E1,-2.891908199E1,2.481593406E0,3.151205038E1
2.202868458E0,-1.198871465E1,-4.774034999E1,1.301587865E0,4.923986624E1
2.212797458E0,-3.371322697E0,-5.693156489E1,-2.744975388E0,5.709731856E1
2.222727458E0,8.651052037E0,-4.826049023E1,-4.484515028E0,4.923440356E1
2.232656458E0,1.411297769E1,-2.937343871E1,-5.367831677E0,3.302708976E1
2.242586458E0,1.163862080E1,-1.449026227E1,-5.878458495E0,1.949311337E1
2.252516458E0,9.343157133E0,-8.650640978E0,-6.120588187E0,1.412762451E1
2.262445458E0,5.262528001E0,-8.363404695E0,-5.548208925E0,1.133240316E1
2.272375458E0,2.632266213E0,-1.082927026E1,-4.457454114E0,1.200295034E1
2.282304458E0,4.335058734E0,-1.147895907E1,-2.674185487E0,1.255828426E1
2.292234458E0,4.341442724E0,-9.884697011E0,-5.128860724E-1,1.080825666E1
2.302164458E0,2.054430914E0,-7.358744872E0,1.523735282E0,7.790608557E0
2.312093458E0,6.363554031E-2,-5.329911899E0,2.294453269E0,5.803147951E0
2.322023458E0,-1.258409978E0,-3.446940644E0,1.885448720E0,4.125519646E0
2.331952458E0,-2.310618774E0,-1.496642209E0,1.004280338E0,2.930439560E0
2.341882458E0,-2.607679841E0,6.110527468E-1,2.838869977E-1,2.693319780E0
2.351811458E0,-1.965947046E0,2.777361946E0,3.617559034E-2,3.402939294E0
2.361741458E0,-1.041748711E0,4.867746804E0,4.142190957E-1,4.995175351E0
2.371671458E0,-3.209102516E-1,6.647880154E0,1.078323703E0,6.742408764E0
2.381600458E0,3.724826936E-1,8.166615483E0,1.702879937E0,8.350577937E0
2.391530458E0,1.014126903E0,9.306575198E0,2.133903930E0,9.601788441E0
2.401459458E0,1.533983843E0,1.014650258E1,2.509838966E0,1.056427531E1
2.411389458E0,1.898630245E0,1.066041437E1,2.602475234E0,1.113652139E1
2.421318458E0,1.982317057E0,1.072565175E1,2.443056747E0,1.117755397E1
2.431248458E0,1.931016657E0,1.063009538E1,2.383670086E0,1.106388884E1
2.441178458E0,1.866867146E0,1.060584113E1,2.413823300E0,1.103610448E1
2.451107208E0,1.841152700E0,1.077410061E1,2.276075470E0,1.116474840E1
2.461037208E0,1.843017084E0,1.115428657E1,2.405613517E0,1.155862437E1
2.470966208E0,2.072950654E0,1.159456788E1,2.504829949E0,1.204181472E1
2.480896208E0,2.401436266E0,1.183596784E1,2.528115023E0,1.233889770E1
2.490826208E0,2.346792720E0,1.233479264E1,2.414694389E0,1.278613681E1
2.500755208E0,2.173680199E0,1.289733922E1,2.318278334E0,1.328309674E1
2.510685208E0,1.931573458E0,1.360657841E1,2.377827694E0,1.394718669E1
2.520614208E0,1.628962945E0,1.444247297E1,2.896454526E0,1.481985137E1
2.530544208E0,1.340893872E0,1.511968112E1,3.664170552E0,1.561502159E1
2.540474208E0,1.481592937E0,1.557828292E1,4.412213037E0,1.625870967E1
2.550403208E0,1.841359691E0,1.642289802E1,4.957751241E0,1.725344841E1
2.560333208E0,2.431786239E0,1.558537910E1,3.255243187E0,1.610634143E1
2.570262208E0,2.756195610E0,1.229650156E1,2.547244482E-1,1.260418380E1
2.580192208E0,2.311728137E0,9.838693457E0,-2.046618888E0,1.031177118E1
2.590122208E0,1.729190068E0,7.617999889E0,-5.959940615E0,9.825727084E0
2.600051208E0,1.248877263E0,6.078111674E0,-6.172567595E0,8.752355492E0
2.609981208E0,5.530147826E-1,5.165227409E0,-5.599457431E0,7.638018268E0
2.619910208E0,-5.613384585E-2,3.703964948E0,-7.941086036E0,8.762611185E0
2.629840208E0,-5.471344936E-1,1.189421312E0,-8.425442483E0,8.526556178E0
2.639769208E0,-2.783950369E-1,-2.396336324E0,-2.430233510E0,3.424319858E0
2.649699208E0,5.201741517E-1,-9.189006402E0,-1.397327836E0,9.309186048E0
2.659629208E0,1.977163175E0,-1.923153321E1,3.052671078E0,1.957242562E1
2.669558208E0,-3.479074602E0,-3.414045144E1,3.115086597E0,3.445835384E1
2.679488208E0,-8.092484483E0,-5.248243721E1,-5.789268284E-1,5.310583468E1
2.689417208E0,5.800543177E-1,-5.836201837E1,-1.332176989E0,5.838010232E1
2.699347208E0,1.233688126E1,-3.929965096E1,-1.581718904E0,4.122090537E1
2.709277208E0,8.654593111E0,-1.861739313E1,-9.768032487E-1,2.055391577E1
2.719206208E0,2.168451034E0,-9.346639735E0,-1.435192065E0,9.701630300E0
2.729136208E0,-7.186591295E-1,-5.115291018E0,-2.263272261E0,5.639598786E0
2.739065208E0,-1.047153585E0,-3.931432747E0,-2.785715278E0,4.930811666E0
2.748995208E0,5.034717994E-1,-5.158765651E0,-3.142022381E0,6.061241749E0
2.758924208E0,1.652776315E0,-6.797839016E0,-2.353800023E0,7.381236982E0
2.768854208E0,8.437233979E-1,-6.942305589E0,-3.042667370E-1,7.000003879E0
2.778784208E0,-2.555059651E-2,-5.835657461E0,1.355869907E0,5.991154650E0
2.788713208E0,-5.297179770E-1,-4.065067937E0,2.096226958E0,4.604296463E0
2.798643208E0,-1.043805470E0,-1.871455164E0,1.744574093E0,2.763225118E0
2.808572208E0,-1.452059821E0,2.243798840E-1,1.171648700E0,1.879251109E0
2.818502208E0,-1.526148136E0,2.047084472E0,1.007621437E0,2.744992519E0
2.828432208E0,-1.251242754E0,3.642242909E0,1.319377580E0,4.070908871E0
2.838361208E0,-6.390161055E-1,5.126712969E0,1.537590991E0,5.390335194E0
2.848291208E0,2.622834362E-2,6.564621651E0,1.444534746E0,6.721727901E0
2.858220208E0,5.618662611E-1,7.839868979E0,1.436345136E0,7.990139339E0
2.868150208E0,1.095961756E0,9.081032302E0,1.277592062E0,9.235719860E0
2.878080208E0,1.397347570E0,1.024761848E1,8.014253707E-1,1.037345398E1
2.888009208E0,1.528790347E0,1.118040492E1,7.750148132E-2,1.128470914E1
2.897939208E0,1.041122475E0,1.160358078E1,-6.171312929E-1,1.166652793E1
2.907868208E0,6.760107811E-1,1.171430365E1,-8.178757080E-1,1.176226259E1
2.917798208E0,8.467180493E-1,1.182873951E1,-5.932631779E-1,1.187383557E1
2.927727208E0,1.128389245E0,1.180054190E1,-3.171529770E-1,1.185861026E1
2.937657208E0,1.441368479E0,1.167678441E1,3.491489410E-2,1.176546031E1
2.947587208E0,1.783118061E0,1.152743600E1,5.035411620E-1,1.167539483E1
2.957516208E0,2.095022285E0,1.134182432E1,8.730771513E-1,1.156669188E1
2.967446208E0,2.290680061E0,1.124882903E1,1.046111319E0,1.152725981E1
2.977375208E0,2.408515490E0,1.120849143E1,1.103796367E0,1.151736052E1
2.987305208E0,2.465783997E0,1.126463523E1,1.121499397E0,1.158576102E1
2.997235208E0,2.567936901E0,1.130069851E1,1.199780897E0,1.165073221E1
3.007164208E0,2.683062730E0,1.133835926E1,1.260429314E0,1.171946664E1
3.017094208E0,2.778235228E0,1.141256744E1,1.123429125E0,1.179946523E1
3.027023208E0,3.144267127E0,1.140457781E1,7.557187092E-1,1.185419426E1
3.036953208E0,3.829514901E0,1.021365902E1,-3.602680063E-1,1.091392725E1
3.046883208E0,4.025689863E0,7.895857823E0,-1.945279770E0,9.073856017E0
3.056812208E0,3.090585887E0,7.066271238E0,-1.702566526E0,7.898268362E0
3.066742208E0,2.211079283E0,6.710720766E0,-1.642580964E0,7.254013855E0
3.076671208E0,1.489412857E0,5.881901336E0,-2.821154375E-1,6.074101012E0
3.086601208E0,6.893213828E-1,4.887937825E0,3.107460659E0,5.832959103E0
3.096530208E0,-3.238634609E-1,3.706680395E0,6.407574209E0,7.409546163E0
3.106460208E0,-1.284095920E0,1.332510865E0,8.593259912E0,8.790256165E0
3.116390208E0,-2.994696812E0,-5.325950410E0,7.791289726E0,9.901421735E0
3.126319208E0,-1.008115527E1,-2.453969054E1,1.239782796E0,2.655867401E1
3.136249208E0,-1.725992694E1,-4.684514128E1,-2.209320148E0,4.997252680E1
3.146178208E0,-1.205486771E1,-5.303562123E1,-2.736965872E0,5.445721199E1
3.156108208E0,4.554081107E0,-3.358781238E1,-2.832704673E0,3.401330638E1
3.166038208E0,1.148757553E1,-1.251038920E1,-2.127834520E0,1.711729853E1
3.175967208E0,9.519316784E0,-2.988173366E0,-3.376346040E0,1.053310423E1
3.185897208E0,4.474653699E0,-7.421555078E-1,-4.967654670E0,6.726879919E0
3.195826208E0,-6.577230294E-1,-3.407052693E0,-4.579782543E0,5.745869454E0
3.205756208E0,-1.492128743E0,-8.572446163E0,-3.322934648E0,9.314245867E0
3.215686208E0,-2.415971567E-1,-9.967426926E0,-3.282930923E-1,9.975757869E0
3.225615208E0,2.517951393E-1,-8.603128842E0,2.842398187E0,9.064019755E0
3.235545208E0,8.036641234E-1,-7.238436656E0,4.454243993E0,8.537044617E0
3.245474208E0,1.522953802E0,-5.849507176E0,4.610375175E0,7.602084040E0
3.255404208E0,1.526642664E0,-4.622763087E0,4.081005692E0,6.352573009E0
3.265334208E0,9.546969728E-1,-4.087772675E0,3.253929902E0,5.311251412E0
3.275263208E0,5.735213698E-1,-4.019118762E0,1.957342576E0,4.507042527E0
3.285193208E0,3.502210280E-1,-3.991814604E0,1.562621971E-1,4.010194069E0
3.295122208E0,5.120514920E-1,-3.399107496E0,-1.935530707E0,3.944921751E0
3.305052208E0,1.201069112E0,-2.142262525E0,-4.064042920E0,4.748505090E0
3.314981208E0,2.024134005E0,-6.075783312E-1,-5.892932693E0,6.260425354E0
3.324911208E0,2.399723324E0,1.132482296E0,-7.338990639E0,7.803971539E0
3.334841208E0,3.031117657E0,2.851644974E0,-7.171997668E0,8.291990344E0
3.344770208E0,4.054983829E0,4.244768077E0,-5.921348407E0,8.338064333E0
3.354700208E0,3.970295096E0,5.411014534E0,-4.716105698E0,8.202680927E0
3.364629208E0,3.318850953E0,6.468946000E0,-3.352046766E0,8.006138365E0
3.374559208E0,2.701990459E0,7.641604514E0,-2.206049216E0,8.400090781E0
3.384489208E0,2.460637570E0,8.740740724E0,-1.510394275E0,9.205247227E0
3.394418208E0,2.371396195E0,9.687524221E0,-1.100150117E0,1.003404085E1
3.404348208E0,2.381218348E0,1.034926063E1,-1.108757218E0,1.067739383E1
3.414277208E0,2.410991786E0,1.068715836E1,-1.228673086E0,1.102442165E1
3.424207208E0,2.433720790E0,1.092285962E1,-1.326300538E0,1.126902535E1
3.434137208E0,2.572941240E0,1.099957860E1,-1.337691498E0,1.137541975E1
3.444066208E0,2.625929001E0,1.097622716E1,-1.037214780E0,1.133352903E1
3.453996458E0,2.555244935E0,1.098381685E1,-4.701471652E-1,1.128691931E1
3.463925458E0,2.542180501E0,1.107103626E1,1.604487669E-1,1.136029354E1
3.473855458E0,2.701417724E0,1.122510688E1,6.389673543E-1,1.156325912E1
3.483785458E0,2.893999573E0,1.135072261E1,5.925205815E-1,1.172881998E1
3.493714458E0,2.916421598E0,1.143051138E1,2.216048137E-1,1.179878019E1
3.503644458E0,2.782620347E0,1.138347170E1,-1.419446683E-1,1.171949454E1
3.513573458E0,2.493924015E0,1.031113679E1,-8.387830853E-1,1.064155796E1
3.523503458E0,2.130794381E0,7.503712551E0,-2.465184950E0,8.180655449E0
3.533432458E0,1.821365137E0,6.123973140E0,-5.545007428E-1,6.413102920E0
3.543362458E0,1.395002983E0,5.824805029E0,1.771038591E0,6.245875810E0
3.553292458E0,1.060523244E0,4.733118172E0,2.482360561E0,5.448782537E0
3.563221458E0,7.925725400E-1,2.159062745E0,2.775337640E0,3.604472525E0
3.573151458E0,1.266126841E-1,-3.945238023E0,2.444398098E0,4.642845667E0
3.583080458E0,-4.351258153E-1,-1.417950965E1,2.028940562E0,1.433054180E1
3.593010458E0,-1.250948054E0,-2.695827903E1,2.236951751E0,2.707983812E1
3.602940458E0,-2.762366762E0,-3.869652236E1,2.369879135E0,3.886731068E1
3.612869458E0,-1.648525682E0,-4.102219391E1,1.803346796E0,4.109489128E1
3.622799458E0,4.320517147E-1,-2.561329079E1,2.359961088E-1,2.561802155E1
3.632728458E0,-5.322189043E-1,-1.147254584E1,-1.532865271E0,1.158672693E1
3.642658458E0,-1.153543674E0,-4.143272107E0,-3.015102718E0,5.252448111E0
3.652587458E0,-1.475032946E0,1.715011740E-1,-4.493812101E0,4.732809107E0
3.662517458E0,-2.272555154E0,1.456469498E0,-5.634263567E0,6.247458385E0
3.672447458E0,-3.759921048E0,-2.217325571E0,-5.710871447E0,7.188017227E0
3.682376458E0,-4.425839681E0,-8.602285674E0,-4.302533305E0,1.058768948E1
3.692306458E0,-3.855999279E0,-1.186981737E1,-2.330788891E0,1.269621486E1
3.702236458E0,-2.609836879E0,-1.252617902E1,-7.006893933E-1,1.281434255E1
3.712165458E0,-9.112943336E-1,-1.107808098E1,3.345836730E-1,1.112053424E1
3.722095458E0,7.395719156E-1,-8.473645175E0,6.680305012E-1,8.532050980E0
3.732024458E0,1.582842300E0,-6.020975606E0,4.185545138E-1,6.239609353E0
3.741954458E0,1.297383571E0,-4.117721529E0,3.710681060E-1,4.333188925E0
3.751883458E0,5.198682692E-1,-2.271664916E0,9.672450976E-1,2.523150330E0
3.761813458E0,-7.140476498E-1,-4.669294059E-1,2.048969615E0,2.219496249E0
3.771743458E0,-1.920504094E0,1.159426265E0,2.822354224E0,3.605313940E0
3.781672458E0,-2.169049058E0,2.950764050E0,2.948117308E0,4.701401701E0
3.791602458E0,-2.100740570E0,4.482557965E0,2.751931236E0,5.663882271E0
3.801531458E0,-2.100502588E0,5.698513942E0,2.524417244E0,6.577070373E0
3.811461458E0,-2.165575520E0,6.489846287E0,2.182740021E0,7.181377038E0
3.821391458E0,-2.319133782E0,6.720670388E0,1.672079144E0,7.303536172E0
3.831320458E0,-1.878376367E0,6.906765043E0,9.791816767E-1,7.224299128E0
3.841250458E0,-8.639935749E-1,7.383830597E0,2.024587456E-1,7.436963676E0
3.851179458E0,-5.500768125E-3,8.148679733E0,-4.321922672E-1,8.160134914E0
3.861109458E0,5.342929848E-1,9.133730918E0,-8.612269648E-1,9.189788973E0
3.871039458E0,8.821900369E-1,1.022564699E1,-1.148741575E0,1.032771624E1
3.880968458E0,9.552869569E-1,1.114461528E1,-1.504975076E0,1.128627365E1
3.890898458E0,1.026585712E0,1.175194218E1,-1.681936380E0,1.191599485E1
3.900827458E0,1.156769729E0,1.198459353E1,-1.567102911E0,1.214184541E1
3.910757458E0,1.343941002E0,1.194293563E1,-1.248813236E0,1.208302211E1
3.920687458E0,1.548489324E0,1.171583913E1,-7.929700776E-1,1.184430273E1
3.930616458E0,1.720042830E0,1.140118876E1,-2.317813627E-1,1.153253550E1
3.940546458E0,1.887709693E0,1.109218446E1,3.510633925E-1,1.125714216E1
3.950475458E0,2.037575292E0,1.086240058E1,7.206296412E-1,1.107532242E1
3.960405458E0,2.123655808E0,1.075500711E1,7.372871161E-1,1.098743302E1
3.970335458E0,2.215702530E0,1.071534194E1,4.935914668E-1,1.095315129E1
3.980264458E0,2.387602046E0,1.059504016E1,-3.267634606E-1,1.086564742E1
3.990194458E0,2.907140898E0,9.229057490E0,-1.058599729E0,9.733838079E0
4.000123458E0,2.925211133E0,8.311351027E0,-7.740273647E-1,8.845028797E0
4.010053458E0,1.615779812E0,7.444346940E0,-1.983144877E0,7.871588745E0
4.019982458E0,1.711851320E-1,5.918846968E0,-1.829175409E0,6.197413691E0
4.029912458E0,-7.636142045E-1,4.197992105E0,3.017639240E0,5.226125807E0
4.039842458E0,-1.519138494E0,1.663413570E0,7.989392223E0,8.300910466E0
4.049771458E0,-5.477688580E0,-6.309397704E0,9.677712593E0,1.278560490E1
4.059701458E0,-1.322343376E1,-2.213873726E1,8.248931415E0,2.707448536E1
4.069631458E0,-1.957346786E1,-3.790105077E1,6.460513730E0,4.314334863E1
4.079560458E0,-1.513531540E1,-3.944316969E1,3.739741429E0,4.241258155E1
4.089490458E0,-1.422757376E0,-2.452533446E1,2.034648906E0,2.465068082E1
4.099419458E0,5.191305991E0,-1.023335245E1,-9.102780875E-1,1.151085429E1
4.109349458E0,7.053856430E0,-2.562254577E0,-3.934956279E0,8.473837381E0
4.119278458E0,7.191345520E0,3.660093874E-1,-4.923818679E0,8.723153308E0
4.129208458E0,5.360922607E0,1.699317813E-2,-5.223231204E0,7.484779501E0
4.139138458E0,2.427568057E0,-4.695182607E0,-5.245942959E0,7.446995630E0
4.149067458E0,1.689250954E0,-8.760906601E0,-4.086387470E0,9.813542470E0
4.158997458E0,2.144114923E0,-9.577518799E0,-1.218707092E0,9.889961684E0
4.168926458E0,3.356308801E0,-8.860973511E0,2.086833844E0,9.702398457E0
4.178856458E0,4.025637530E0,-8.460778962E0,4.097975482E0,1.022662903E1
4.188786458E0,3.533993698E0,-8.308274807E0,4.459563789E0,1.006996777E1
4.198715458E0,3.046431807E0,-7.794226783E0,3.929940537E0,9.245277201E0
4.208645458E0,2.881788832E0,-7.123276328E0,2.958590548E0,8.234016672E0
4.218574458E0,2.483009309E0,-6.477829674E0,1.823113893E0,7.172960114E0
4.228504458E0,1.172226113E0,-5.939731468E0,5.801349727E-1,6.082029312E0
4.238434458E0,-1.652858761E-1,-5.375952875E0,-6.479872692E-1,5.417386477E0
4.248363458E0,-1.336653033E0,-4.429034307E0,-2.190724248E0,5.118814214E0
4.258293458E0,-2.416726735E0,-3.096478418E0,-4.674907386E0,6.106022091E0
4.268222458E0,-3.601369117E0,-1.157873830E0,-8.383907372E0,9.197849430E0
4.278152458E0,-2.992323427E0,8.630349970E-1,-9.752861009E0,1.023802358E1
4.288082458E0,-5.678101020E-1,2.629054922E0,-7.707399139E0,8.163230952E0
4.298011458E0,1.990522309E0,4.246501776E0,-4.788146319E0,6.702335531E0
4.307941458E0,2.225740007E0,5.585672620E0,-2.467635518E0,6.499452457E0
4.317870458E0,8.984773099E-1,6.767990735E0,-1.392969906E0,6.968021614E0
4.327800458E0,7.148864329E-2,7.991718246E0,-1.162189148E0,8.076097743E0
4.337730458E0,-1.493308711E-1,9.295673649E0,-1.047825138E0,9.355735450E0
4.347659458E0,-6.846124738E-2,1.023336882E1,-1.038468423E0,1.028615288E1
4.357589458E0,3.721054021E-1,1.069810552E1,-1.091248316E0,1.076005330E1
4.367518458E0,1.096409653E0,1.095387560E1,-8.181225336E-1,1.103896866E1
4.377448458E0,1.817323396E0,1.101507957E1,-4.355468148E-1,1.117248152E1
4.387378458E0,2.419207124E0,1.106033117E1,-2.666037794E-1,1.132495326E1
4.397307458E0,2.747344680E0,1.097579681E1,-2.209405518E-1,1.131657338E1
4.407237458E0,2.821971231E0,1.078358246E1,1.709608912E-2,1.114672438E1
4.417166458E0,2.764455387E0,1.068603453E1,4.104417944E-1,1.104545200E1
4.427096458E0,2.709933609E0,1.064488884E1,7.207675624E-1,1.100803817E1
4.437026458E0,2.691778589E0,1.060385308E1,9.784040701E-1,1.098383570E1
4.446955458E0,2.719346457E0,1.057543444E1,1.351560509E0,1.100278940E1
4.456884708E0,2.852967322E0,1.058952974E1,1.795595727E0,1.111313307E1
4.466813708E0,2.996881040E0,1.062911656E1,1.991464587E0,1.122164632E1
4.476743708E0,3.130388176E0,1.065628155E1,1.730120945E0,1.124050645E1
4.486673708E0,3.527678120E0,1.047862560E1,5.931615825E-1,1.107239577E1
4.496602708E0,4.533978672E0,8.829205588E0,-2.642416395E0,1.027103687E1
4.506532708E0,4.542004268E0,6.826352963E0,-1.875269595E0,8.411036417E0
4.516461708E0,3.568213943E0,6.572106087E0,-2.167059982E-1,7.481423036E0
4.526391708E0,3.230220320E0,6.045007077E0,-4.467755154E-2,6.854081263E0
4.536321708E0,3.166054437E0,4.416423032E0,8.856030567E-1,5.505723011E0
4.546250708E0,3.680804127E0,1.196681800E0,3.247998487E0,5.052708236E0
4.556180708E0,3.261712839E0,-5.297810100E0,3.980107309E0,7.385581676E0
4.566109708E0,-2.832892661E0,-2.495245018E1,-1.034457818E0,2.513404372E1
4.576039708E0,-1.142412505E1,-5.274474330E1,-4.150087037E0,5.412708935E1
4.585969708E0,-1.421572029E1,-6.520520664E1,-4.893546474E0,6.691601059E1
4.595898708E0,-5.606602728E0,-4.632397193E1,-5.645403682E0,4.700228667E1
4.605828708E0,-3.651424792E0,-1.895471433E1,-5.796682845E0,2.015479174E1
4.615757708E0,-4.588771760E0,-7.773898938E0,-4.073451090E0,9.903703082E0
4.625687708E0,-4.607525243E0,-3.243301418E0,-1.781514608E0,5.909491285E0
4.635617708E0,-5.075707707E0,-2.589982073E0,1.108969764E-1,5.699395933E0
4.645546708E0,-5.881483260E0,-6.752794991E0,9.306991227E-1,9.003237550E0
4.655476708E0,-5.675055497E0,-1.038861707E1,1.059150756E0,1.188492406E1
4.665405708E0,-4.079039274E0,-9.854338267E0,9.549111271E-1,1.070786624E1
4.675335708E0,-1.665815021E0,-7.686000668E0,5.949845982E-1,7.886922887E0
4.685265708E0,3.184240155E-1,-5.467868766E0,3.254854055E-1,5.486795371E0
4.695194708E0,9.869440748E-1,-3.345404329E0,5.396548084E-1,3.529449821E0
4.705124708E0,8.245954013E-1,-1.342533578E0,1.310713322E0,2.049469052E0
4.715053708E0,5.286312720E-1,6.488397932E-1,1.899018939E0,2.075263123E0
4.724983708E0,-2.117532603E-1,2.615565981E0,2.023566825E0,3.313736190E0
4.734913708E0,-6.891181920E-1,4.491369134E0,1.982445696E0,4.957557011E0
4.744842708E0,-7.759097296E-1,6.073967167E0,1.828072332E0,6.390380388E0
4.754772708E0,-4.093542123E-1,7.450557268E0,1.960829855E0,7.715129823E0
4.764701708E0,-8.103612319E-2,8.519070439E0,2.367172751E0,8.842207577E0
4.774631708E0,6.316698830E-1,9.524292179E0,2.801239636E0,9.947768185E0
4.784561708E0,1.564368315E0,1.031788213E1,2.962836796E0,1.084824142E1
4.794490708E0,2.335520604E0,1.063626887E1,2.554815749E0,1.118534557E1
4.804420708E0,2.862122599E0,1.077099223E1,1.870521948E0,1.130065802E1
4.814349708E0,3.295627859E0,1.090620675E1,1.257903317E0,1.146249665E1
4.824279708E0,3.641599715E0,1.090675522E1,6.777017228E-1,1.151858662E1
4.834209708E0,3.752702952E0,1.077532736E1,1.095721436E-1,1.141062948E1
4.844138708E0,3.720983562E0,1.065130908E1,-3.839258409E-1,1.128908778E1
4.854068708E0,3.622704146E0,1.060365077E1,-8.531719136E-1,1.123785109E1
4.863997708E0,3.553149469E0,1.065582079E1,-1.340505763E0,1.131230939E1
4.873927708E0,3.522871417E0,1.078575060E1,-1.703642414E0,1.147368452E1
4.883857708E0,3.401578822E0,1.098049446E1,-2.023591529E0,1.167205722E1
4.893786708E0,3.226174631E0,1.102884275E1,-1.817339183E0,1.163384274E1
4.903716708E0,3.212586579E0,1.093984696E1,-1.114861711E0,1.145617216E1
4.913645708E0,3.323994164E0,1.086472544E1,-3.746428013E-1,1.136800569E1
4.923575708E0,3.461541434E0,1.083920819E1,2.119592285E-1,1.138049340E1
4.933505708E0,3.522024740E0,1.081446277E1,4.635485093E-1,1.138297591E1
4.943434708E0,3.434989812E0,1.080100482E1,3.543798967E-1,1.133959634E1
4.953364708E0,3.499550674E0,1.026107760E1,-1.062806216E0,1.089339826E1
4.963293708E0,3.528437381E0,8.813419860E0,-2.228963284E0,9.751641775E0
4.973223708E0,2.645835262E0,8.180665757E0,-2.163117789E0,8.865822863E0
4.983153708E0,1.600649119E0,6.796064971E0,-3.961733018E0,8.027696133E0
4.993082708E0,8.084391059E-1,5.366966874E0,-9.672521874E-1,5.513028570E0
5.003012708E0,2.882668546E-1,3.914496871E0,5.020041629E0,6.372378009E0
5.012941708E0,-4.838174804E-1,3.119431078E-1,8.254115556E0,8.274165304E0
5.022871708E0,-2.219395778E0,-5.802975034E0,1.017180232E1,1.191913584E1
5.032801708E0,-1.089365395E1,-1.848973555E1,7.370190797E0,2.269056477E1
5.042730708E0,-2.159792828E1,-3.947582055E1,2.578059601E0,4.507169073E1
5.052660708E0,-2.093220641E1,-4.969992504E1,1.021568216E0,5.393777355E1
5.062589708E0,-3.635215141E0,-3.742119550E1,-1.528132389E0,3.762839155E1
5.072519708E0,1.063336281E1,-1.971582183E1,-3.958078508E0,2.274749262E1
5.082449708E0,1.151792608E1,-7.973056857E0,-7.635641524E0,1.595416179E1
5.092378708E0,5.793352856E0,-4.965677726E0,-1.097318778E1,1.336531865E1
5.102308708E0,2.273090467E-1,-6.635557147E0,-9.723954713E0,1.177444620E1
5.112237708E0,-1.799924713E0,-8.182833320E0,-5.097435960E0,9.807259734E0
5.122167708E0,-7.570018807E-1,-8.196184852E0,-8.216975212E-2,8.231479202E0
5.132097708E0,6.511859885E-1,-7.724620943E0,3.490142212E0,8.501464848E0
5.142026708E0,1.335934410E0,-6.764083625E0,6.019782189E0,9.152886192E0
5.151956708E0,8.055565748E-1,-5.812272692E0,7.231735747E0,9.312864068E0
5.161885708E0,1.132231450E-1,-5.147824926E0,7.160459358E0,8.819586110E0
5.171815708E0,-3.991306481E-1,-4.686484289E0,6.367474004E0,7.916259562E0
5.181745708E0,-9.232215571E-1,-4.434330130E0,5.043032881E0,6.778480832E0
5.191674708E0,-1.207383666E0,-4.015926767E0,3.926428699E0,5.744761566E0
5.201604708E0,-1.192874385E0,-3.203466677E0,3.158759451E0,4.654343060E0
5.211533708E0,-1.008939984E0,-2.241195075E0,2.201642754E0,3.299719090E0
5.221463708E0,-9.798614886E-1,-1.097597222E0,7.376478893E-1,1.645895686E0
5.231393708E0,-1.464783654E0,2.370700961E-1,-1.440067474E0,2.067749432E0
5.241322708E0,-2.487578031E0,2.508630931E0,-6.516162266E0,7.412263102E0
5.251252708E0,-4.493067458E0,5.374851844E0,-1.434726510E1,1.596623636E1
5.261181708E0,-2.361142518E0,7.314618859E0,-1.125150238E1,1.362625953E1
5.271111708E0,1.365770997E0,8.219144529E0,-7.032412351E0,1.090295789E1
5.281041708E0,2.594652537E0,7.899094841E0,-5.031317984E0,9.718131598E0
5.290970708E0,2.169441845E0,7.709371989E0,-3.516904918E0,8.746971738E0
5.300900708E0,1.795551288E0,8.050379267E0,-2.134549463E0,8.519912686E0
5.310829708E0,2.396478704E0,8.571124107E0,-9.359100151E-1,8.948922069E0
5.320759708E0,3.047749477E0,9.106671758E0,-1.599663899E-1,9.604469618E0
5.330689708E0,3.254556139E0,9.333575301E0,3.238416070E-1,9.890027146E0
5.340618708E0,3.484774760E0,9.547996792E0,6.364910585E-1,1.018395889E1
5.350548708E0,3.921085221E0,9.785438186E0,1.051887199E0,1.059415766E1
5.360477708E0,4.372520383E0,1.000440121E1,1.664144472E0,1.104429060E1
5.370407708E0,4.651761476E0,1.017119187E1,2.571635849E0,1.147629469E1
5.380337708E0,4.849208207E0,1.026705814E1,3.229971521E0,1.180508446E1
5.390266708E0,4.667310099E0,1.038098879E1,3.103161786E0,1.179738636E1
5.400196708E0,4.138024231E0,1.047532426E1,2.597388157E0,1.155863695E1
5.410125708E0,3.709965945E0,1.065835147E1,2.149530029E0,1.148846303E1
5.420055708E0,3.408730844E0,1.080855942E1,1.680556437E0,1.145725415E1
5.429985708E0,3.188524995E0,1.087912362E1,1.061961951E0,1.138638598E1
5.439914708E0,3.088435865E0,1.064162609E1,4.152106008E-2,1.108081071E1
5.449844708E0,3.219398001E0,1.011341670E1,-2.148264692E0,1.082870084E1
5.459774125E0,3.195637840E0,8.188400454E0,-3.782570822E0,9.569213407E0
5.469704125E0,2.339277440E0,7.571161938E0,-2.079334205E0,8.192578517E0
5.479634125E0,1.836018113E0,6.879201268E0,-1.962924328E0,7.385624179E0
5.489563125E0,1.593867664E0,4.677605876E0,-8.820980895E-1,5.019811541E0
5.499493125E0,2.020759723E-1,-5.203326112E-1,1.789975383E0,1.874991359E0
5.509422125E0,-3.354415473E0,-1.151136200E1,1.821473165E0,1.212770888E1
5.519352125E0,-7.629017213E0,-2.746857022E1,-1.006499868E0,2.852608097E1
5.529282125E0,-9.647939156E0,-4.206330235E1,-3.804958642E0,4.332299441E1
5.539211125E0,-3.473498113E0,-4.402792003E1,-5.827176075E0,4.454749053E1
5.549141125E0,4.486032965E0,-2.592105782E1,-7.578480313E0,2.737625055E1
5.559070125E0,2.422102665E0,-1.104301406E1,-8.205954380E0,1.396969678E1
5.569000125E0,-5.699281096E-1,-6.517154539E0,-6.185402234E0,9.003183999E0
5.578930125E0,-2.118485700E0,-4.799188786E0,-3.434341063E0,6.270158945E0
5.588859125E0,-3.066776901E0,-5.844860979E0,-1.385029679E0,6.744318174E0
5.598789125E0,-3.303764552E0,-9.132556797E0,3.557353909E-1,9.718281820E0
5.608719125E0,-4.043696656E0,-1.115346445E1,1.273983160E0,1.193206961E1
5.618648125E0,-4.744152453E0,-1.093131353E1,1.015182033E0,1.195956490E1
5.628578125E0,-4.808971762E0,-9.476213449E0,2.580401118E-1,1.062974202E1
5.638507125E0,-4.744682211E0,-7.980145437E0,2.394668698E-1,9.287199516E0
5.648437125E0,-4.520920377E0,-6.503134085E0,8.748802865E-1,7.968368058E0
5.658367125E0,-3.901422497E0,-5.073833674E0,1.597828860E0,6.596813073E0
5.668296125E0,-3.083617467E0,-3.917839140E0,2.232076488E0,5.462629921E0
5.678226125E0,-2.185189128E0,-2.888365488E0,2.636855693E0,4.480035118E0
5.688155125E0,-1.398226699E0,-1.756148071E0,2.665709363E0,3.484982117E0
5.698085125E0,-8.633479692E-1,-5.867189741E-1,2.457706361E0,2.670192770E0
5.708015125E0,-4.677290127E-1,5.644375741E-1,2.140849253E0,2.262873335E0
5.717944125E0,9.846711159E-4,1.936680855E0,1.797869124E0,2.642549354E0
5.727874125E0,3.702777086E-1,3.336646954E0,1.565342753E0,3.704135042E0
5.737803125E0,5.871370500E-1,4.741750417E0,1.452799055E0,4.993951544E0
5.747733125E0,4.458399609E-1,5.904217819E0,1.169541291E0,6.035427752E0
5.757663125E0,4.776359501E-1,6.854824226E0,6.878290272E-1,6.905784535E0
5.767592125E0,8.445076557E-1,7.835705761E0,2.843291203E-1,7.886210814E0
5.777522125E0,1.520569015E0,8.861891524E0,5.876568675E-2,8.991590789E0
5.787451125E0,2.195893479E0,9.752565140E0,-2.399265341E-1,9.999601978E0
5.797381125E0,2.762936280E0,1.038580573E1,-5.799794734E-1,1.076267410E1
5.807311125E0,3.189568723E0,1.077897017E1,-1.043095398E0,1.128926900E1
5.817240125E0,3.399707420E0,1.096980458E1,-1.386180704E0,1.156789177E1
5.827170125E0,3.483916681E0,1.107734891E1,-1.573985084E0,1.171847957E1
5.837099125E0,3.554296108E0,1.112053878E1,-1.520053875E0,1.177327344E1
5.847029125E0,3.660962185E0,1.101465389E1,-1.172997068E0,1.166624047E1
5.856959125E0,3.802544619E0,1.081740275E1,-6.081934218E-1,1.148239727E1
5.866888125E0,3.924460527E0,1.068173799E1,-7.576748952E-3,1.137984949E1
5.876818125E0,3.909007213E0,1.058970399E1,4.212568045E-1,1.129600041E1
5.886747125E0,3.834772717E0,1.056739803E1,6.178448725E-1,1.125864624E1
5.896677125E0,3.776273371E0,1.053856073E1,5.902237586E-1,1.121025722E1
5.906607125E0,3.801371375E0,1.053341167E1,5.657344866E-1,1.121263757E1
5.916536125E0,3.914197494E0,1.057301486E1,5.431548786E-1,1.128736473E1
5.926466125E0,3.958337832E0,1.061774606E1,4.000466144E-1,1.133865103E1
5.936396125E0,3.847670213E0,1.050760440E1,-2.335611820E-2,1.118994468E1
5.946325125E0,3.491579750E0,1.011583628E1,-2.337284307E-1,1.070401334E1
5.956255125E0,2.926743396E0,9.269123197E0,-1.362480769E0,9.815234362E0
5.966184125E0,2.123825962E0,7.959303036E0,-3.375039772E0,8.902361204E0
5.976114125E0,1.564863720E0,6.529633666E0,-2.868103716E0,7.301433640E0
5.986044125E0,1.151099392E0,3.195471194E0,1.775096558E0,3.832366600E0
5.995973125E0,-1.385820808E0,-2.856888757E0,6.053110149E0,6.835382590E0
6.005903125E0,-9.219024253E0,-1.796416676E1,6.879429309E0,2.133139103E1
6.015832125E0,-1.745658751E1,-3.661734836E1,6.949754941E0,4.115655163E1
6.025762125E0,-1.703851978E1,-4.436327422E1,3.563760996E0,4.765618164E1
6.035692125E0,-2.190228551E0,-3.194448750E1,4.358503218E-1,3.202245069E1
6.045621125E0,8.140822245E0,-1.650443744E1,-2.400298398E0,1.855884895E1
6.055551125E0,8.932413037E0,-7.631908661E0,-6.137390746E0,1.325524793E1
6.065480125E0,5.870678190E0,-4.662873232E0,-8.108431009E0,1.104327409E1
6.075410125E0,2.381945449E0,-5.822467312E0,-8.012213906E0,1.018677385E1
6.085340125E0,2.865613680E-1,-9.284479739E0,-5.729567335E0,1.091382716E1
6.095269125E0,9.970398773E-1,-1.027679960E1,-1.363712193E0,1.041472080E1
6.105199125E0,1.270806807E0,-9.036950728E0,2.655776113E0,9.504450282E0
6.115128125E0,1.360648252E0,-7.462900740E0,5.416520272E0,9.321209309E0
6.125058125E0,2.076875744E0,-6.352408068E0,6.993520181E0,9.673459859E0
6.134988125E0,1.897184959E0,-5.918142963E0,7.489488029E0,9.732222657E0
6.144917125E0,9.235454929E-1,-5.832228069E0,6.934252803E0,9.107781424E0
6.154847125E0,-3.947250634E-2,-6.131714269E0,6.110188329E0,8.656435720E0
6.164776125E0,-6.630391717E-1,-6.401320612E0,5.280952578E0,8.324961660E0
6.174706125E0,-7.163707486E-1,-5.933574350E0,4.280672904E0,7.351506793E0
6.184636125E0,-4.899691898E-1,-5.093768002E0,3.005952995E0,5.934837459E0
6.194565125E0,-3.701875153E-1,-4.273331725E0,1.513182228E0,4.548419867E0
6.204495125E0,-3.386757007E-1,-3.083472456E0,-3.861980689E-1,3.125964262E0
6.214425125E0,-8.829365802E-1,-1.287603664E0,-4.221248821E0,4.500715700E0
6.224354125E0,-3.084008938E0,1.014070331E0,-1.040995473E1,1.090443063E1
6.234284125E0,-2.575947002E0,2.949076543E0,-9.983415552E0,1.072385852E1
6.244213125E0,4.856694397E-1,4.307266626E0,-6.520702629E0,7.829941466E0
6.254143125E0,1.431707709E0,5.613068579E0,-5.241428908E0,7.812099772E0
6.264073125E0,1.277941725E0,6.750138016E0,-4.373079377E0,8.143790366E0
6.274002125E0,1.423231293E0,7.707990877E0,-3.988260666E0,8.794596853E0
6.283932125E0,1.824297954E0,8.502708760E0,-3.755046809E0,9.472301506E0
6.293861125E0,2.459592380E0,9.373267370E0,-3.125360155E0,1.018212217E1
6.303791125E0,3.316199241E0,1.017775712E1,-2.358000224E0,1.096102561E1
6.313721125E0,4.229424106E0,1.061116210E1,-1.539222803E0,1.152623079E1
6.323650125E0,4.696072553E0,1.074575682E1,-7.962545317E-1,1.175408050E1
6.333580125E0,4.961914458E0,1.069683550E1,7.616587677E-3,1.179164717E1
6.343509125E0,5.043462651E0,1.051393928E1,6.867016840E-1,1.168122399E1
6.353439125E0,5.019905389E0,1.038590163E1,1.185903043E0,1.159623942E1
6.363369125E0,5.000528886E0,1.033280774E1,1.574294987E0,1.158665653E1
6.373298125E0,4.850191416E0,1.028479625E1,1.770426972E0,1.150807553E1
6.383228125E0,4.418138605E0,1.026051393E1,1.838876817E0,1.132164135E1
6.393157125E0,3.671984187E0,1.025965322E1,1.816528759E0,1.104734035E1
6.403087125E0,2.938177041E0,1.023206606E1,1.622476044E0,1.076849519E1
6.413017125E0,2.394987956E0,1.025057717E1,1.438608009E0,1.062449494E1
6.422946125E0,2.029153547E0,1.025611449E1,1.307811642E0,1.053639975E1
6.432876125E0,1.805362916E0,1.025474156E1,1.205321573E0,1.048197786E1
6.442806125E0,1.618076599E0,1.023544107E1,1.137295066E0,1.042477174E1
6.452735125E0,1.496209807E0,9.949987020E0,1.143747030E0,1.012665013E1
6.462664833E0,1.536572260E0,9.209627777E0,1.125737605E0,9.404551199E0
6.472593833E0,1.631001723E0,8.652162423E0,1.228408792E0,8.889829547E0
6.482523833E0,1.565852631E0,8.574438309E0,1.125743453E0,8.788639548E0
6.492453833E0,1.282986264E0,7.183414357E0,1.393759865E0,7.429001422E0
6.502382833E0,4.415441577E-1,8.021871167E-1,6.872654287E-1,1.144901386E0
6.512312833E0,-3.190406336E0,-1.698599775E1,-4.597593162E0,1.788409000E1
6.522241833E0,-8.492832229E0,-4.594846842E1,-1.212998806E1,4.827552754E1
6.532171833E0,-1.013964146E1,-6.806366713E1,-1.475202457E1,7.037824480E1
6.542101833E0,2.763859848E0,-5.533404476E1,-1.158994624E1,5.660231696E1
6.552030833E0,4.471067309E0,-2.400875635E1,-7.029337885E0,2.541303633E1
6.561960833E0,-9.231941483E-1,-9.451432949E0,-2.921182109E0,9.935551174E0
6.571889833E0,-1.734637627E0,-3.883722975E0,-9.082199407E-1,4.349383325E0
6.581819833E0,-3.343606602E0,-2.416561843E0,6.362682796E-1,4.174244072E0
6.591749833E0,-5.347417293E0,-4.009286084E0,1.751004860E0,6.909071185E0
6.601678833E0,-6.963951396E0,-7.137307892E0,1.734863183E0,1.012163689E1
6.611608833E0,-6.998076332E0,-9.103910703E0,9.230508184E-1,1.151982141E1
6.621538833E0,-5.658876252E0,-8.873629809E0,-4.938882861E-1,1.053603873E1
6.631467833E0,-4.253179881E0,-7.109812530E0,-1.419481620E0,8.405587509E0
6.641397833E0,-3.683078109E0,-5.187171425E0,-1.186682915E0,6.471478045E0
6.651326833E0,-3.461508689E0,-3.698379688E0,-3.627071723E-1,5.078544202E0
6.661256833E0,-2.528314706E0,-2.384558278E0,5.948524511E-1,3.525952761E0
6.671186833E0,-1.559764510E0,-9.121983862E-1,1.394889400E0,2.282693072E0
6.681115833E0,-7.027711482E-1,7.609531367E-1,1.599325601E0,1.905460402E0
6.691045833E0,8.930774063E-2,2.233089080E0,1.435679723E0,2.656282925E0
6.700974833E0,8.593989059E-1,3.732554909E0,1.336630229E0,4.056736742E0
6.710904833E0,1.603954403E0,5.227200878E0,1.174614408E0,5.592496559E0
6.720834833E0,2.418977328E0,6.610476685E0,1.039354277E0,7.115483865E0
6.730763833E0,3.330425516E0,7.894255686E0,1.060482752E0,8.633402030E0
6.740693833E0,3.923986610E0,8.693614504E0,9.035749125E-1,9.580869047E0
6.750622833E0,4.182893425E0,9.009658265E0,6.899445498E-1,9.957236712E0
6.760552833E0,4.185794229E0,9.132294257E0,8.117560852E-1,1.007862191E1
6.770482833E0,3.849819649E0,9.228545274E0,1.108766647E0,1.006064226E1
6.780411833E0,3.295267378E0,9.368249874E0,1.296463366E0,1.001517399E1
6.790341833E0,2.789165428E0,9.567719450E0,1.409236275E0,1.006512027E1
6.800271833E0,2.535400654E0,9.765279325E0,1.377813338E0,1.018269642E1
6.810200833E0,2.414391357E0,9.908002843E0,1.246509433E0,1.027383043E1
6.820130833E0,2.305558009E0,1.000519409E1,9.589293337E-1,1.031208282E1
6.830059833E0,2.278266715E0,1.000923101E1,6.330488026E-1,1.028474382E1
6.839989833E0,2.317632802E0,1.005371429E1,3.371808235E-1,1.032290093E1
6.849919833E0,2.335990427E0,1.015000740E1,-6.118530113E-2,1.041552904E1
6.859848833E0,2.395020408E0,1.020940693E1,-5.503504622E-1,1.050099987E1
6.869778833E0,2.465441642E0,1.041243395E1,-1.119111468E0,1.075869852E1
6.879707833E0,2.513773558E0,1.061397344E1,-1.781515632E0,1.105211689E1
6.889637833E0,2.556217034E0,1.074320977E1,-2.583101070E0,1.134121743E1
6.899567833E0,2.746367610E0,1.099556507E1,-4.854704590E0,1.232936101E1
6.909496833E0,2.964578097E0,1.078562547E1,-9.374916869E0,1.459477668E1
6.919426833E0,1.606464613E0,8.222462239E0,-7.000609345E0,1.091779030E1
6.929355833E0,9.811392514E-1,8.372279014E0,-2.149580315E0,8.699332483E0
6.939285833E0,1.435250976E0,8.479830360E0,-1.584786061E0,8.745228136E0
6.949215833E0,1.560921820E0,7.759651612E0,1.362172036E0,8.031449603E0
6.959144833E0,9.267920132E-1,6.447258092E0,5.092690945E0,8.268106277E0
6.969074833E0,-2.624788794E-1,3.943554025E0,1.132103747E1,1.199109682E1
6.979004833E0,-1.132261856E0,-1.726573439E0,1.552605676E1,1.566274277E1
6.988933833E0,-5.289056818E0,-1.240284370E1,1.426251906E1,1.962712674E1
6.998863833E0,-1.416446944E1,-3.223894627E1,7.518345208E0,3.600704606E1
7.008792833E0,-1.801815644E1,-4.793436061E1,4.379652232E0,5.139589713E1
7.018722833E0,-6.717100663E0,-4.120128243E1,1.632401108E0,4.177714505E1
7.028652833E0,9.298726480E0,-2.258581069E1,-6.374367871E0,2.524317184E1
7.038581833E0,1.484356156E1,-8.940504999E0,-1.283624400E1,2.156462635E1
7.048511833E0,1.161246153E1,-3.751218637E0,-1.399212159E1,1.856610812E1
7.058440833E0,4.739827560E0,-3.952338881E0,-1.193882036E1,1.343958257E1
7.068370833E0,-6.231775331E-1,-5.660778351E0,-6.921849105E0,8.963523682E0
7.078300833E0,-3.091702997E0,-7.238902094E0,-1.586529701E0,8.029782528E0
7.088229833E0,-3.763171515E0,-8.514920670E0,2.555775862E0,9.653876119E0
7.098159833E0,-4.052354043E0,-8.794298295E0,5.895180362E0,1.133641951E1
7.108089833E0,-2.808445160E0,-8.272674034E0,7.802563158E0,1.171343211E1
7.118018833E0,-1.074980485E0,-7.580978828E0,7.927698251E0,1.102157986E1
7.127948833E0,-9.625986077E-1,-7.070875336E0,7.207575052E0,1.014263340E1
7.137877833E0,-1.068659498E0,-6.865028202E0,6.368534689E0,9.424907396E0
7.147807833E0,-9.168276268E-1,-6.509025739E0,4.997460852E0,8.257275818E0
7.157737833E0,-6.957768551E-1,-5.886411878E0,3.330343655E0,6.798907198E0
7.167666833E0,-4.086180478E-2,-4.879244769E0,1.927071540E0,5.246170406E0
7.177596833E0,4.441173711E-1,-3.377752880E0,4.528329750E-1,3.436788102E0
7.187525833E0,3.888284388E-1,-1.285000484E0,-2.933980787E0,3.226554983E0
7.197455833E0,-1.622228706E0,1.568138453E0,-1.101447146E1,1.124318753E1
7.207385833E0,-1.569009396E0,3.942571692E0,-1.235350957E1,1.306196236E1
7.217314833E0,1.254518364E0,5.218782057E0,-9.156861919E0,1.061402952E1
7.227244833E0,3.051989878E0,5.432021241E0,-6.562465782E0,9.049168698E0
7.237174833E0,2.365027700E0,5.641152756E0,-4.606184476E0,7.657212017E0
7.247103833E0,1.493657205E0,6.271103119E0,-2.998158656E0,7.109620349E0
7.257033833E0,1.637660970E0,7.369796695E0,-1.948593387E0,7.796977168E0
7.266962833E0,1.945929396E0,8.454384447E0,-1.459389744E0,8.797333460E0
7.276892833E0,2.272416868E0,9.290221120E0,-1.338302532E0,9.657284326E0
7.286822833E0,2.397731762E0,9.857484069E0,-1.253426689E0,1.022204423E1
7.296751833E0,2.816067298E0,1.024691097E1,-9.471987227E-1,1.066895519E1
7.306681833E0,3.319641204E0,1.040068105E1,-4.127116835E-1,1.092540685E1
7.316610833E0,3.589296664E0,1.043905632E1,9.649308245E-2,1.103930516E1
7.326540833E0,3.824272872E0,1.039630850E1,6.114562047E-1,1.109424049E1
7.336470833E0,3.966265780E0,1.035168372E1,1.031593852E0,1.113340945E1
7.346399833E0,4.009765848E0,1.035253741E1,1.301945715E0,1.117802826E1
7.356329833E0,3.930336686E0,1.039133954E1,1.493236206E0,1.120969394E1
7.366258833E0,3.821597478E0,1.040674812E1,1.682438071E0,1.121318918E1
7.376188833E0,3.749995399E0,1.046607046E1,1.821459131E0,1.126582486E1
7.386118833E0,3.652158325E0,1.049006276E1,1.697920328E0,1.123666367E1
7.396047833E0,3.478356856E0,1.050013985E1,1.458089762E0,1.115696773E1
7.405977833E0,3.214882781E0,1.051444915E1,1.179879241E0,1.105808425E1
7.415907833E0,3.011342958E0,1.056186773E1,6.645009756E-1,1.100285408E1
7.425836833E0,3.681601395E0,1.035351858E1,-1.969695404E0,1.116374649E1
7.435766833E0,4.437035052E0,8.638189917E0,-3.835290488E0,1.044102764E1
7.445695833E0,3.937439007E0,7.731075100E0,-1.135463791E0,8.749984351E0
7.455626000E0,3.659806191E0,7.187017996E0,-4.908654948E-1,8.080121160E0
7.465556000E0,3.537801113E0,6.039749261E0,3.983811812E-1,7.010942548E0
7.475485000E0,3.804103194E0,3.777741022E0,2.139475157E0,5.772337680E0
7.485415000E0,4.177676832E0,-4.499455833E-1,4.295633590E0,6.008985162E0
7.495344000E0,2.489384821E0,-9.766134773E0,2.583619133E0,1.040430262E1
7.505274000E0,-4.477503339E0,-3.477969244E1,-5.222683904E0,3.545351139E1
7.515204000E0,-1.211603076E1,-6.271953187E1,-8.800799814E0,6.448249342E1
7.525133000E0,-1.267842882E1,-6.548724825E1,-8.013389196E0,6.718285978E1
7.535063000E0,-8.070230564E0,-3.775210347E1,-4.829224763E0,3.890592949E1
7.544993000E0,-5.611440130E0,-1.450910083E1,-2.841139574E0,1.581373900E1
7.554922000E0,-2.819438510E0,-5.626535887E0,-1.838285225E0,6.556403905E0
7.564852000E0,-2.337550465E0,-3.148227446E0,-1.728525825E0,4.285239754E0
7.574781000E0,-3.838521075E0,-4.618384107E0,-8.943420129E-1,6.071537156E0
7.584711000E0,-5.695711371E0,-8.421414921E0,-1.801560764E-1,1.016827485E1
7.594641000E0,-5.628021079E0,-1.032716050E1,9.044123800E-1,1.179588178E1
7.604570000E0,-4.199410640E0,-9.591586615E0,1.804884614E0,1.062502668E1
7.614500000E0,-2.092156857E0,-7.465956495E0,2.045119808E0,8.018736916E0
7.624430000E0,-2.464038603E-1,-5.417629489E0,2.060820897E0,5.801586586E0
7.634359000E0,1.191578789E0,-3.967502466E0,1.876766921E0,4.547877516E0
7.644289000E0,2.168726584E0,-2.465703013E0,1.782227969E0,3.736228430E0
7.654218000E0,2.696222181E0,-5.368890023E-1,1.868871864E0,3.324236137E0
7.664148000E0,2.813046919E0,1.634659302E0,2.033641723E0,3.836801097E0
7.674078000E0,2.136225860E0,3.742246084E0,2.026328026E0,4.761708931E0
7.684007000E0,1.073966870E0,5.649589119E0,2.014440637E0,6.093376168E0
7.693937000E0,2.535431644E-1,7.252371740E0,1.895421731E0,7.500253565E0
7.703866000E0,-3.880864272E-1,8.492828135E0,1.659201236E0,8.662083442E0
7.713796000E0,-7.088987379E-1,9.310905061E0,1.266582924E0,9.423360482E0
7.723726000E0,-2.773502491E-1,1.007700959E1,8.113584745E-1,1.011342415E1
7.733655000E0,4.260908438E-1,1.067229240E1,2.409591524E-1,1.068351252E1
7.743585000E0,1.060985320E0,1.097240425E1,-4.469471677E-1,1.103263825E1
7.753515000E0,1.611694655E0,1.106390733E1,-1.329684906E0,1.125947010E1
7.763444000E0,2.007695289E0,1.114989298E1,-2.701620623E0,1.164687545E1
7.773374000E0,2.317370262E0,1.140011287E1,-4.180044662E0,1.236145428E1
7.783303000E0,2.644762590E0,1.162848173E1,-4.744837747E0,1.283471237E1
7.793233000E0,2.880167692E0,1.171173439E1,-4.145399909E0,1.275321248E1
7.803163000E0,3.042181174E0,1.161232353E1,-2.974320728E0,1.236719483E1
7.813092000E0,3.259385062E0,1.153119108E1,-1.802265061E0,1.211776044E1
7.823022000E0,3.620428702E0,1.155189373E1,-7.371842051E-1,1.212836317E1
7.832951000E0,3.997101656E0,1.167049280E1,2.088251575E-1,1.233778067E1
7.842881000E0,3.993780438E0,1.173029111E1,1.067739073E0,1.243744662E1
7.852811000E0,3.561564489E0,1.168399286E1,1.779342806E0,1.234368225E1
7.862740000E0,3.419152921E0,1.168426651E1,2.065582724E0,1.234825180E1
7.872670000E0,3.447651665E0,1.150945347E1,2.265355185E0,1.222643265E1
7.882600000E0,3.334472374E0,1.125504462E1,2.422246506E0,1.198590896E1
7.892529000E0,3.015565233E0,1.095255179E1,2.399346471E0,1.161072297E1
7.902459000E0,2.507100715E0,1.013057828E1,2.045568874E0,1.063477890E1
7.912388000E0,2.021627157E0,9.278652989E0,1.920549556E0,9.688595783E0
7.922318000E0,1.947948147E0,8.759949996E0,1.972324312E0,9.188105850E0
7.932248000E0,1.786223225E0,7.963561563E0,2.176457627E0,8.446648684E0
7.942177000E0,1.380563137E0,6.326843457E0,2.959034936E0,7.119746516E0
7.952107000E0,1.010511862E0,5.281858896E0,6.500637324E0,8.436673114E0
7.962037000E0,6.521553107E-1,2.176179299E0,9.063663733E0,9.344038910E0
7.971966000E0,-2.119057265E0,-6.658498698E0,8.991552361E0,1.138745022E1
7.981896000E0,-1.387735011E1,-2.845713792E1,3.962661556E0,3.190755759E1
7.991825000E0,-2.355706595E1,-5.524338485E1,3.962729311E-1,6.005767194E1
8.001755000E0,-1.618971340E1,-6.023710816E1,-1.759219029E0,6.239960634E1
8.011685000E0,1.784295544E0,-3.890400262E1,-5.102837033E0,3.927778094E1
8.021614000E0,8.049371792E0,-1.592069119E1,-7.482052710E0,1.934533295E1
8.031544000E0,6.674146432E0,-4.304002125E0,-8.409159157E0,1.156644382E1
8.041473000E0,4.281868367E0,-5.934228069E-1,-7.072604358E0,8.289045768E0
8.051403000E0,6.525390342E-1,-1.470943111E0,-4.189456340E0,4.487875361E0
8.061333000E0,-2.493319705E0,-4.679641292E0,-1.138831787E0,5.423340632E0
8.071262000E0,-3.379484825E0,-7.399906932E0,2.130327773E0,8.409389794E0
8.081192000E0,-2.459035725E0,-9.060695102E0,4.954872072E0,1.061573406E1
8.091122000E0,-9.034509516E-1,-9.611151398E0,6.235965446E0,1.149250712E1
8.101051000E0,3.867898071E-1,-9.116869302E0,6.691760584E0,1.131576652E1
8.110981000E0,1.030844531E0,-8.357134141E0,6.534205019E0,1.065833790E1
8.120910000E0,9.197541583E-1,-7.448921217E0,5.164768403E0,9.110829142E0
8.130840000E0,1.003274032E0,-6.457619943E0,3.099814839E0,7.232998421E0
8.140770000E0,1.325022629E0,-5.264007931E0,1.594969572E0,5.657684368E0
8.150699000E0,1.852230688E0,-3.807944230E0,3.424281514E-1,4.248347304E0
8.160629000E0,2.331228163E0,-2.029529961E0,-1.106065160E0,3.282833646E0
8.170559000E0,2.294485721E0,5.759963500E-1,-4.727805977E0,5.286642212E0
8.180488000E0,1.163154450E0,3.253229406E0,-9.060091669E0,9.696478273E0
8.190418000E0,1.378663523E0,5.060929454E0,-8.951308315E0,1.037495256E1
8.200347000E0,1.963924494E0,6.459864104E0,-7.739217932E0,1.027045948E1
8.210277000E0,1.966222450E0,7.455533248E0,-6.347639664E0,9.987168570E0
8.220207000E0,1.646024243E0,8.047759715E0,-4.557640307E0,9.394036268E0
8.230136000E0,1.310444351E0,8.529524676E0,-3.077697161E0,9.162001714E0
8.240066000E0,1.052564014E0,9.108307809E0,-1.841194069E0,9.351960102E0
8.249995000E0,8.541992694E-1,9.607190495E0,-1.122243163E0,9.710159386E0
8.259925000E0,7.588735744E-1,9.893176643E0,-6.307485080E-1,9.942267189E0
8.269855000E0,8.910513461E-1,1.018736760E1,-1.252268940E-1,1.022702855E1
8.279784000E0,1.354087091E0,1.047284154E1,4.109423161E-1,1.056801000E1
8.289714000E0,2.063140049E0,1.058614888E1,9.044104797E-1,1.082317205E1
8.299644000E0,2.679888276E0,1.050974565E1,9.987284070E-1,1.089192422E1
8.309573000E0,3.062731213E0,1.034084532E1,8.566147542E-1,1.081883512E1
8.319503000E0,3.277302977E0,1.020629621E1,7.622137964E-1,1.074663515E1
8.329432000E0,3.351576650E0,1.018749624E1,7.672552657E-1,1.075206149E1
8.339362000E0,3.321976290E0,1.027329361E1,8.838464069E-1,1.083315616E1
8.349292000E0,3.282540621E0,1.040913963E1,1.018671505E0,1.096188635E1
8.359221000E0,3.263043665E0,1.049727003E1,1.139933403E0,1.105167771E1
8.369151000E0,3.241230919E0,1.052868361E1,1.201961909E0,1.108167266E1
8.379081000E0,3.234319510E0,1.048616149E1,1.192191138E0,1.103819393E1
8.389010000E0,3.223051926E0,1.042851496E1,1.213270424E0,1.098244113E1
8.398940000E0,3.215775066E0,1.039344219E1,1.272585676E0,1.095373563E1
8.408869000E0,3.234923235E0,1.041239653E1,1.374100356E0,1.098958059E1
8.418799000E0,3.438407802E0,1.021090849E1,1.528988421E0,1.088223810E1
8.428729000E0,4.102067948E0,8.978114290E0,1.636506876E0,1.000558106E1
8.438658000E0,4.124492605E0,7.354972249E0,2.323993403E0,8.746885238E0
8.448588000E0,3.961516671E0,7.157336360E0,2.999770149E0,8.713191094E0
8.458518583E0,4.551392265E0,5.063112220E0,3.398715148E0,7.609306246E0
8.468447583E0,5.641750342E0,-1.593073320E0,2.127844022E0,6.236581572E0
8.478377583E0,4.357356506E0,-1.409481858E1,-3.240709348E0,1.510472322E1
8.488306583E0,-5.894780998E0,-4.108762659E1,-1.125079487E1,4.300606803E1
8.498236583E0,-1.675377558E1,-6.746169394E1,-1.410495999E1,7.092756193E1
8.508166583E0,-8.432406517E0,-6.374216311E1,-1.486219430E1,6.599283035E1
8.518095583E0,2.253365762E0,-3.220116858E1,-1.283319643E1,3.473735519E1
8.528025583E0,8.285770628E-1,-1.165623495E1,-7.607836844E0,1.394394258E1
8.537955583E0,4.146830723E-2,-3.113561643E0,-2.148043521E0,3.782866201E0
8.547884583E0,-8.966237426E-1,5.915815187E-1,9.126217246E-1,1.409532277E0
8.557814583E0,-3.405670411E0,-7.963849247E-1,4.007048647E-1,3.520423879E0
8.567743583E0,-5.331402939E0,-5.460663827E0,-6.509190631E-1,7.659399608E0
8.577673583E0,-5.215257356E0,-8.231180438E0,-2.061003184E-1,9.746472081E0
8.587603583E0,-4.256367783E0,-8.378199905E0,9.470631404E-1,9.444989621E0
8.597532583E0,-4.452820780E0,-7.643040006E0,1.947991855E0,9.057502177E0
8.607462583E0,-5.178129290E0,-6.157493473E0,2.875370344E0,8.543740600E0
8.617392583E0,-4.879228982E0,-4.388729450E0,3.504854684E0,7.439880912E0
8.627321583E0,-3.751923518E0,-2.663828314E0,3.633672645E0,5.863146618E0
8.637251583E0,-2.616750627E0,-1.283119435E0,3.148002913E0,4.289953574E0
8.647180583E0,-1.420849430E0,-9.678954542E-2,2.283566923E0,2.691256066E0
8.657110583E0,-9.828102395E-2,1.282033607E0,1.681600896E0,2.116849286E0
8.667040583E0,1.054667404E0,2.845972590E0,1.395604076E0,3.340597859E0
8.676969583E0,1.551757186E0,4.488274788E0,1.181079163E0,4.893619205E0
8.686899583E0,1.414759847E0,5.950664592E0,1.155501103E0,6.224719858E0
8.696828583E0,1.463483233E0,7.070091224E0,1.479167805E0,7.369932869E0
8.706758583E0,1.784056832E0,8.018917154E0,2.113401253E0,8.482473458E0
8.716688583E0,2.105608377E0,8.783534156E0,2.690516760E0,9.424592264E0
8.726617583E0,2.256854503E0,9.563557402E0,2.717366005E0,1.019505274E1
8.736547583E0,2.189875525E0,1.016491430E1,1.853742778E0,1.056207365E1
8.746477583E0,2.219004014E0,1.070716169E1,3.014695021E-1,1.093883788E1
8.756406583E0,2.382571394E0,1.126057024E1,-1.309605567E0,1.158413378E1
8.766336583E0,2.616008615E0,1.147870647E1,-2.462522128E0,1.202781021E1
8.776265583E0,2.827693317E0,1.141722534E1,-2.860078998E0,1.210491370E1
8.786195583E0,2.892774581E0,1.133869372E1,-2.838116856E0,1.204113896E1
8.796125583E0,2.927725728E0,1.132194613E1,-2.520356938E0,1.196286927E1
8.806054583E0,2.919033842E0,1.124050143E1,-1.890435226E0,1.176619634E1
8.815984583E0,2.831384372E0,1.121753707E1,-1.369847091E0,1.165016551E1
8.825914583E0,2.658081378E0,1.141030808E1,-1.263382158E0,1.178374565E1
8.835843583E0,2.419781905E0,1.156237545E1,-1.456701633E0,1.190234641E1
8.845773583E0,2.217739846E0,1.156738417E1,-1.780218719E0,1.191183971E1
8.855702583E0,2.049054691E0,1.177550646E1,-2.271273737E0,1.216634135E1
8.865632583E0,1.878294360E0,1.206882151E1,-2.407354817E0,1.244908830E1
8.875562583E0,1.791099510E0,1.211256804E1,-2.149487929E0,1.243151802E1
8.885491583E0,2.215006858E0,1.055082117E1,-2.435051908E0,1.105240067E1
8.895421583E0,3.386880091E0,8.106598492E0,2.334945238E0,9.090647123E0
8.905351583E0,1.995262939E0,7.323516567E0,4.758188109E0,8.958533540E0
8.915280583E0,7.922747706E-1,6.549766214E0,5.807459264E0,8.789409530E0
8.925210583E0,3.285914464E-1,5.535142736E0,8.045719621E0,9.771355161E0
8.935139583E0,9.940690532E-2,4.287885445E0,9.355555569E0,1.029185422E1
8.945069583E0,-1.125152811E0,1.079856770E0,9.819330987E0,9.942400139E0
8.954999583E0,-4.034912969E0,-6.215400204E0,8.126893008E0,1.099809585E1
8.964928583E0,-1.061676139E1,-2.197830369E1,3.889086041E0,2.471611713E1
8.974858583E0,-1.822392815E1,-4.327695511E1,-1.263699077E0,4.697449665E1
8.984788583E0,-1.283486874E1,-5.207217785E1,-6.772125885E0,5.405651904E1
8.994717583E0,5.471730267E0,-3.395181559E1,-7.872808099E0,3.527955103E1
9.004647583E0,1.399370736E1,-1.473524306E1,-7.202865704E0,2.155997468E1
9.014576583E0,1.303778817E1,-4.622094165E0,-6.011536446E0,1.508264716E1
9.024506583E0,8.054827244E0,-2.217090513E0,-4.504454033E0,9.491355984E0
9.034436583E0,1.485001279E0,-4.999112105E0,-2.176788579E0,5.651084777E0
9.044365583E0,-1.900846193E0,-8.983086762E0,1.280997480E0,9.270923286E0
9.054295583E0,-1.835141616E0,-1.090145414E1,4.784152086E0,1.204564478E1
9.064225583E0,-1.274619630E0,-1.015768012E1,6.636997901E0,1.220052711E1
9.074154583E0,-8.262223890E-1,-8.821649231E0,6.757262263E0,1.114292295E1
9.084084583E0,-3.975255874E-1,-7.986841668E0,5.748940330E0,9.848755319E0
9.094013583E0,8.171249986E-2,-7.232054420E0,4.534626836E0,8.536517358E0
9.103943583E0,3.129994074E-1,-6.499955539E0,3.203729217E0,7.253362774E0
9.113873583E0,8.308425665E-2,-5.902860680E0,2.022836069E0,6.240395257E0
9.123802583E0,-2.404816541E-1,-5.259720168E0,1.022762218E0,5.363630322E0
9.133732583E0,-4.037028784E-1,-4.524828072E0,-1.186154473E-1,4.544349757E0
9.143662583E0,-5.345419300E-1,-3.544562248E0,-1.639264569E0,3.941680471E0
9.153591583E0,-6.653897524E-1,-2.141287794E0,-4.167719901E0,4.732625710E0
9.163521583E0,-1.236545924E0,-3.078465486E-1,-7.461588040E0,7.569617652E0
9.173450583E0,-6.914800286E-1,1.334269123E0,-8.423323452E0,8.556330797E0
9.183380583E0,1.075084273E0,2.965487339E0,-6.720105547E0,7.423593463E0
9.193310583E0,1.909356231E0,4.627619784E0,-4.141826091E0,6.497324792E0
9.203239583E0,1.331431469E0,5.817723466E0,-2.481029735E0,6.463290542E0
9.213169583E0,5.914753917E-1,6.484283246E0,-1.768349018E0,6.747060887E0
9.223099583E0,3.994370422E-1,7.264136923E0,-1.729709301E0,7.477909431E0
9.233028583E0,5.490459484E-1,8.149574357E0,-1.293547944E0,8.269841591E0
9.242958583E0,8.286317343E-1,9.040786502E0,-6.641665149E-1,9.102942836E0
9.252887583E0,1.150572411E0,9.885450132E0,-3.017315304E-1,9.956755651E0
9.262817583E0,1.474841450E0,1.045500870E1,-1.670964664E-1,1.055984306E1
9.272747583E0,1.833896159E0,1.081732440E1,-1.490355776E-1,1.097268854E1
9.282676583E0,2.057692783E0,1.098694160E1,-7.940869689E-2,1.117825080E1
9.292606583E0,2.204707572E0,1.092333910E1,5.978427172E-2,1.114377165E1
9.302536583E0,2.254899487E0,1.082282312E1,2.717341447E-1,1.105856733E1
9.312465583E0,2.322302973E0,1.085445773E1,9.024265194E-1,1.113672830E1
9.322395583E0,2.473379822E0,1.104900979E1,1.960667303E0,1.149097217E1
9.332324583E0,2.812019270E0,1.120675013E1,2.803178573E0,1.188934443E1
9.342254583E0,3.101109705E0,1.096573609E1,2.785288432E0,1.173124380E1
9.352184583E0,3.081392894E0,1.106035339E1,2.809051516E0,1.182020176E1
9.362113583E0,2.934588313E0,1.112906636E1,2.579342480E0,1.179495376E1
9.372043583E0,2.752331770E0,1.110220659E1,1.909106555E0,1.159650849E1
9.381973583E0,2.583792796E0,1.111248600E1,1.172349197E0,1.146899006E1
9.391902583E0,2.495943058E0,1.107732201E1,3.189306767E-1,1.135951194E1
9.401832583E0,2.432192474E0,1.066430978E1,-6.013862029E-1,1.095466698E1
9.411761583E0,1.978625271E0,9.078072442E0,-1.083731135E0,9.354187853E0
9.421691583E0,1.820454726E0,7.508616611E0,4.030142225E-2,7.726254139E0
9.431621583E0,1.813379449E0,6.976871989E0,8.078185701E-1,7.253803045E0
9.441550583E0,1.888992133E0,6.214455294E0,2.666669476E-1,6.500681283E0
9.451480583E0,2.078064775E0,4.576643758E0,-2.933548093E-1,5.034886130E0
9.461410000E0,2.043581698E0,1.751496611E0,-8.098417068E-1,2.810660087E0
9.471339000E0,1.371711330E0,-6.619314752E0,-4.301106584E0,8.012267944E0
9.481269000E0,-3.014558634E0,-2.622707068E1,-9.517698859E0,2.806302535E1
9.491198000E0,-8.943270732E0,-5.220061545E1,-9.923805528E0,5.388291251E1
9.501128000E0,-1.355116318E1,-6.858051889E1,-7.137003837E0,7.026989696E1
9.511058000E0,-9.993861018E0,-5.007319257E1,-2.360350366E0,5.111529249E1
9.520987000E0,-6.120637304E0,-1.940042536E1,6.458470421E-1,2.035327550E1
9.530917000E0,-1.545035812E0,-6.419758052E0,1.867166816E0,6.861977924E0
9.540847000E0,4.929449109E-1,-7.839981830E-1,1.601806283E0,1.850251659E0
9.550776000E0,-5.063275795E-1,6.468798065E-1,9.240683801E-1,1.236415575E0
9.560706000E0,-3.627452377E0,-1.840036905E0,3.696095181E-1,4.084208339E0
9.570636000E0,-5.663786743E0,-6.110822167E0,1.284760456E-1,8.332894691E0
9.580565000E0,-3.825311922E0,-8.692408808E0,-1.955251904E-1,9.498905847E0
9.590495000E0,-1.001857764E0,-9.004198135E0,-6.123671278E-1,9.080434820E0
9.600424000E0,7.165917002E-1,-8.079527637E0,-1.308823356E0,8.216160240E0
9.610354000E0,1.846783130E0,-6.398987573E0,-1.694530113E0,6.872341827E0
9.620284000E0,2.240891312E0,-4.389298384E0,-1.341992272E0,5.107688071E0
9.630213000E0,2.280519647E0,-2.383360183E0,-9.205107149E-1,3.424692044E0
9.640143000E0,1.732428841E0,-3.524520332E-1,-6.678631246E-1,1.889860650E0
9.650073000E0,2.828415886E-1,1.546202039E0,-2.658634671E-1,1.594184272E0
9.660002000E0,-6.573880570E-1,3.208199413E0,1.462798671E-1,3.278124515E0
9.669932000E0,-7.447489672E-1,4.761391799E0,6.036724277E-1,4.856945881E0
9.679861000E0,-6.479730897E-1,5.981184134E0,1.067077169E0,6.110080724E0
9.689791000E0,-4.087281217E-1,7.097216458E0,1.405692862E0,7.246620768E0
9.699721000E0,6.114784241E-2,8.148690843E0,1.354544928E0,8.260732018E0
9.709650000E0,6.392031433E-1,9.153758217E0,1.150869962E0,9.247938787E0
9.719580000E0,1.198457745E0,1.014564187E1,1.004881505E0,1.026548279E1
9.729510000E0,1.477708047E0,1.085515355E1,8.165157187E-1,1.098565781E1
9.739439000E0,1.510703885E0,1.125454995E1,5.620636046E-1,1.136939032E1
9.749369000E0,1.589731782E0,1.139432764E1,3.183972645E-1,1.150909755E1
9.759298000E0,1.794882951E0,1.133526608E1,1.224371874E-1,1.147714480E1
9.769228000E0,2.015317134E0,1.117940972E1,-4.460256100E-3,1.135960936E1
9.779158000E0,2.213428110E0,1.102742187E1,-2.188566041E-1,1.124949756E1
9.789087000E0,2.458063041E0,1.093691984E1,-4.271063590E-1,1.121787455E1
9.799017000E0,2.647854890E0,1.102523268E1,-5.179557180E-1,1.135055810E1
9.808947000E0,2.828296749E0,1.107527900E1,-4.833964077E-1,1.144092389E1
9.818876000E0,3.063351018E0,1.108550928E1,-3.121688104E-1,1.150521990E1
9.828806000E0,3.301863037E0,1.114084967E1,3.455119729E-2,1.161989779E1
9.838735000E0,3.532667257E0,1.110418997E1,3.682927982E-1,1.165840522E1
9.848665000E0,3.819538674E0,1.103227623E1,6.286002409E-1,1.169166938E1
9.858595000E0,4.063330729E0,1.099488446E1,6.539689708E-1,1.173992403E1
9.868524000E0,4.320184879E0,1.105642289E1,-8.257788777E-1,1.189917625E1
9.878454000E0,5.068116851E0,9.962900012E0,-2.868936360E0,1.154018981E1
9.888384000E0,4.639832278E0,9.009671713E0,5.956734002E-1,1.015170206E1
9.898313000E0,4.308164466E0,8.328883903E0,-3.153121273E-1,9.382430915E0
9.908243000E0,3.241082985E0,6.771490293E0,-6.433950122E-1,7.534696865E0
9.918172000E0,2.734083195E0,4.971517925E0,1.452340779E0,5.856662457E0
9.928102000E0,3.111948981E0,3.078023436E0,4.637216234E0,6.376694217E0
9.938032000E0,2.289391773E0,6.238476241E-1,7.957648859E0,8.303895225E0
9.947961000E0,2.036691923E-1,-4.692363079E0,9.052272187E0,1.019820495E1
9.957891000E0,-9.179255000E0,-2.087351907E1,3.999147012E0,2.315071700E1
9.967821000E0,-1.801524336E1,-4.504434855E1,6.572796643E-1,4.851777350E1
9.977750000E0,-1.326614299E1,-5.453652197E1,1.222680860E0,5.614016144E1
9.987680000E0,4.743827348E0,-3.546331615E1,-7.302330351E-1,3.578664459E1
9.997610000E0,9.473644767E0,-1.400220687E1,-2.744327517E0,1.712726119E1
1.000753900E1,7.277258660E0,-4.122372989E0,-4.549731363E0,9.521161071E0
1.001746900E1,6.273739044E0,5.012847215E-1,-5.915498267E0,8.637372732E0
1.002739800E1,4.237493848E0,1.237220546E0,-5.640701351E0,7.162721586E0
1.003732800E1,1.050871391E0,-2.917458310E0,-3.002264571E0,4.316188854E0
1.004725800E1,3.431862429E-2,-8.405493538E0,4.733497218E-1,8.418881122E0
1.005718700E1,-3.451259105E-1,-1.139211505E1,4.138127142E0,1.212532447E1
1.006711700E1,-1.028541605E0,-1.277998326E1,7.486048697E0,1.484677726E1
1.007704700E1,-1.304430343E0,-1.229911059E1,8.627742112E0,1.508003958E1
1.008697600E1,-9.833470139E-1,-1.076197582E1,7.098276558E0,1.292952532E1
1.009690600E1,-6.013840833E-1,-9.186949351E0,5.080085517E0,1.051517808E1
1.010683500E1,-2.848876025E-1,-7.363796282E0,3.594177042E0,8.199070998E0
1.011676500E1,-1.108832355E-1,-5.681379261E0,2.579650043E0,6.240589695E0
1.012669500E1,-1.675914332E-2,-4.165362888E0,1.711105800E0,4.503155773E0
1.013662400E1,4.241160929E-2,-2.537113888E0,7.410082110E-1,2.643452060E0
1.014655400E1,-5.699579304E-1,-6.682116187E-1,-1.444938204E0,1.690918456E0
1.015648400E1,-5.340484250E-1,1.020893447E0,-3.283167150E0,3.479456522E0
1.016641300E1,1.354823256E0,2.293082097E0,-2.650056367E0,3.757202457E0
1.017634300E1,2.386343433E0,3.446467019E0,-1.494417343E0,4.450399206E0
1.018627200E1,1.935051820E0,4.458482639E0,-7.702993262E-1,4.920960683E0
1.019620200E1,1.335308466E0,5.413099651E0,-5.287005615E-1,5.600376846E0
1.020613200E1,1.191201205E0,6.385676971E0,-7.720780492E-2,6.496290613E0
1.021606100E1,1.298402595E0,7.414164197E0,5.923241150E-1,7.550266744E0
1.022599100E1,1.307503201E0,8.455625226E0,1.026405033E0,8.617463076E0
1.023592100E1,1.199362456E0,9.310846589E0,1.073705499E0,9.448977616E0
1.024585000E1,1.211107758E0,9.869704750E0,7.017489818E-1,9.968465553E0
1.025578000E1,1.513989143E0,1.021744802E1,4.297306625E-1,1.033794349E1
1.026571000E1,1.682181378E0,1.069709044E1,5.177113410E-1,1.084091800E1
1.027563900E1,1.769583219E0,1.101424576E1,1.087025530E0,1.120832989E1
1.028556900E1,1.798939457E0,1.106410029E1,1.562459053E0,1.131776377E1
1.029549800E1,1.696116462E0,1.102706402E1,1.766020510E0,1.129565317E1
1.030542800E1,1.652253866E0,1.098651592E1,1.754278132E0,1.124770940E1
1.031535800E1,1.702316411E0,1.092128555E1,1.656022543E0,1.117652764E1
1.032528700E1,1.874260073E0,1.076851301E1,1.606046537E0,1.104776488E1
1.033521700E1,2.067116594E0,1.059675573E1,1.639594206E0,1.092027803E1
1.034514700E1,2.170058434E0,1.047312337E1,1.755035931E0,1.083861697E1
1.035507600E1,2.146214366E0,1.037304945E1,1.902410177E0,1.076222818E1
1.036500600E1,2.024753663E0,1.036284722E1,1.865468638E0,1.072232266E1
1.037493500E1,1.916961997E0,1.038321658E1,1.411895735E0,1.065267006E1
1.038486500E1,1.885665506E0,1.048936694E1,5.905608872E-1,1.067386131E1
1.039479500E1,1.794175877E0,1.059892622E1,3.943808086E-1,1.075694382E1
1.040472400E1,1.878591837E0,1.042843661E1,1.253616285E0,1.067018984E1
1.041465400E1,2.606791064E0,8.974553336E0,2.675616885E0,9.720951237E0
1.042458400E1,3.505903382E0,7.534463058E0,3.166155009E0,8.892920197E0
1.043451300E1,3.758746927E0,5.851127440E0,4.457958144E0,8.260584821E0
1.044444300E1,3.410287957E0,4.987263308E0,4.276583362E0,7.402163501E0
1.045437300E1,3.095983451E0,1.944635991E0,-2.881281002E0,4.654943918E0
1.046430188E1,2.641397810E0,-9.825969915E0,-1.146760261E1,1.533077222E1
1.047423188E1,-5.043205959E0,-3.694697930E1,-1.502036967E1,4.020105360E1
1.048416088E1,-9.599592623E0,-6.510406384E1,-1.454548454E1,6.739630871E1
1.049409088E1,-1.046583482E0,-6.544247262E1,-8.762760168E0,6.603482812E1
1.050402088E1,6.414157004E0,-3.514559717E1,-1.557464069E0,3.576003502E1
1.051394988E1,1.474292981E0,-1.194725088E1,2.165537659E0,1.223110366E1
1.052387988E1,-1.404847501E0,-2.314738430E0,2.528969886E0,3.705037002E0
1.053380988E1,-3.933903488E0,1.667228878E0,1.665822477E0,4.585871052E0
1.054373888E1,-6.182364020E0,1.172535723E0,6.849122898E-1,6.329736941E0
1.055366888E1,-6.037301617E0,-3.989298547E0,-1.741268077E0,7.442817224E0
1.056359888E1,-3.100208942E0,-8.866032522E0,-3.401699567E0,9.989463855E0
1.057352788E1,-1.317902766E0,-1.049916687E1,-3.044835809E0,1.101092175E1
1.058345788E1,-2.006363512E-1,-9.775946401E0,-1.571156055E0,9.903429422E0
1.059338687E1,9.733178696E-1,-6.967412363E0,4.832619949E-1,7.051646962E0
1.060331688E1,1.201899636E0,-4.585870079E0,2.338397580E0,5.286101622E0
1.061324688E1,9.169390894E-1,-2.808617068E0,3.620749129E0,4.673214245E0
1.062317588E1,6.205970107E-1,-1.071253177E0,3.884646835E0,4.077156491E0
1.063310588E1,6.785320274E-1,6.615528095E-1,3.931912218E0,4.044501394E0
1.064303588E1,1.235203695E0,2.542910818E0,4.084180731E0,4.967157722E0
1.065296488E1,1.454232938E0,3.959581243E0,4.381888207E0,6.082271066E0
1.066289488E1,8.165411541E-1,4.902879215E0,4.562154357E0,6.746718938E0
1.067282388E1,-1.050861597E-1,5.802475097E0,4.287441641E0,7.215394388E0
1.068275388E1,-7.049020198E-1,6.702020693E0,3.565197072E0,7.623949003E0
1.069268388E1,-1.038885038E0,7.484119701E0,2.888758421E0,8.089267892E0
1.070261288E1,-1.321813677E0,8.198248335E0,2.444295187E0,8.656387590E0
1.071254288E1,-1.345849680E0,9.010764558E0,1.856582186E0,9.297961427E0
1.072247288E1,-1.129318367E0,9.824984075E0,9.251148856E-1,9.932850024E0
1.073240188E1,-4.681555670E-1,1.062782550E1,-1.379042423E-1,1.063902542E1
1.074233188E1,5.232338534E-1,1.154225986E1,-1.454662124E0,1.164532430E1
1.075226188E1,1.187167503E0,1.231533544E1,-2.839202099E0,1.269401128E1
1.076219088E1,1.479413534E0,1.290038913E1,-3.914700939E0,1.356221175E1
1.077212088E1,1.714114923E0,1.321750702E1,-4.490749914E0,1.406440602E1
1.078204988E1,2.026953386E0,1.332956774E1,-4.589264973E0,1.424244604E1
1.079197988E1,2.577616966E0,1.320194407E1,-4.412845121E0,1.415657581E1
1.080190988E1,3.202459787E0,1.283943541E1,-3.657987707E0,1.372908316E1
1.081183888E1,3.962278271E0,1.235564615E1,-2.494377759E0,1.321300727E1
1.082176888E1,4.814942062E0,1.179580448E1,-1.098573707E0,1.278794490E1
1.083169888E1,5.241939955E0,1.129507115E1,1.955993038E-1,1.245370732E1
1.084162788E1,5.309003425E0,1.082662147E1,1.208962707E0,1.211869798E1
1.085155788E1,5.341430914E0,1.037747930E1,1.733919296E0,1.179955240E1
1.086148788E1,5.218006132E0,9.254536732E0,1.696422272E0,1.075880508E1
1.087141688E1,4.772820767E0,7.925811355E0,1.619874033E0,9.392672441E0
1.088134688E1,4.721321999E0,7.225615466E0,1.965847936E0,8.852398454E0
1.089127588E1,4.821279566E0,5.649219575E0,8.917857563E-1,7.480220605E0
1.090120588E1,4.448930043E0,1.207368756E0,1.258907357E-2,4.609867278E0
1.091113588E1,5.819211875E-1,-5.906390060E0,2.680254897E0,6.512130382E0
1.092106488E1,-7.896181759E0,-1.871449668E1,1.819010317E0,2.039340263E1
1.093099488E1,-1.684666795E1,-3.448557048E1,3.230268559E0,3.851622291E1
1.094092488E1,-2.028279359E1,-3.902141705E1,5.876865714E0,4.436891090E1
1.095085388E1,-1.071121848E1,-2.419877682E1,4.577334899E0,2.685633996E1
1.096078388E1,-2.690493371E0,-9.554838619E0,3.185448482E0,1.042500732E1
1.097071388E1,-2.435114181E0,-4.235397329E0,2.810494609E0,5.636244455E0
1.098064288E1,-1.981127003E0,-1.812932721E0,1.285324420E0,2.977187954E0
1.099057288E1,1.367385706E0,-5.359212881E-1,-1.313640146E0,1.970432879E0
1.100050188E1,3.016506050E0,-1.541155892E0,-3.320212770E0,4.743235506E0
1.101043188E1,2.894130258E0,-5.751652268E0,-4.181762574E0,7.677540751E0
1.102036188E1,2.338622552E0,-1.035769466E1,-3.591306059E0,1.120930298E1
1.103029088E1,2.150241635E0,-1.205185055E1,-1.920454831E0,1.239188394E1
1.104022088E1,2.171384290E0,-1.058735107E1,6.655885577E-2,1.080792961E1
1.105015088E1,1.530201718E0,-7.990373971E0,1.753109858E0,8.322318647E0
1.106007988E1,4.407066903E-1,-6.328223984E0,3.147081392E0,7.081296666E0
1.107000988E1,-6.229357508E-1,-5.134181617E0,4.206057755E0,6.666242695E0
1.107993988E1,-1.816253940E0,-4.957699201E0,4.599290024E0,7.002215968E0
1.108986888E1,-2.310711452E0,-4.868491740E0,4.432691156E0,6.977847098E0
1.109979888E1,-2.259822550E0,-4.701299964E0,4.070838554E0,6.616702036E0
1.110972788E1,-1.871051706E0,-4.462600248E0,3.648171401E0,6.060098187E0
1.111965788E1,-1.748915066E0,-4.213892439E0,3.077835156E0,5.503513663E0
1.112958788E1,-1.643175187E0,-3.501830796E0,2.312976079E0,4.506961500E0
1.113951688E1,-1.571351791E0,-2.190382771E0,1.431186723E0,3.052084299E0
1.114944688E1,-1.586704533E0,-5.405534524E-1,-2.807968173E-1,1.699610591E0
1.115937688E1,-2.554872467E0,1.547066842E0,-5.572671336E0,6.322614566E0
1.116930588E1,-3.381388971E0,3.343261324E0,-1.045772648E1,1.148804730E1
1.117923588E1,-7.479582846E-2,4.264484888E0,-7.960577145E0,9.031180114E0
1.118916588E1,2.685786655E0,5.195536451E0,-5.914806542E0,8.318171999E0
1.119909488E1,3.340584469E0,6.132766183E0,-5.225339710E0,8.722069750E0
1.120902488E1,3.272706481E0,7.259698302E0,-4.346707265E0,9.072358634E0
1.121895388E1,3.157289169E0,8.436043485E0,-3.370967771E0,9.617625918E0
1.122888388E1,3.033969929E0,9.250530805E0,-2.671916183E0,1.009536675E1
1.123881388E1,2.934749111E0,9.566679230E0,-2.121308443E0,1.022907881E1
1.124874288E1,3.050571343E0,9.696003853E0,-1.482316530E0,1.027208540E1
1.125867288E1,3.334094644E0,9.761669254E0,-8.269950986E-1,1.034844407E1
1.126860288E1,3.627063537E0,9.809388381E0,-2.387283665E-1,1.046119886E1
1.127853188E1,3.811014603E0,9.872569885E0,2.819427985E-1,1.058635727E1
1.128846188E1,3.874566236E0,1.003118613E1,6.865479022E-1,1.077535646E1
1.129839188E1,3.842056301E0,1.023397459E1,1.176410673E0,1.099452476E1
1.130832088E1,3.675623201E0,1.030459726E1,1.562408767E0,1.105151808E1
1.131825088E1,3.550336373E0,1.037110115E1,1.914304730E0,1.112785649E1
1.132817988E1,3.527587196E0,1.036501888E1,2.166138461E0,1.116107717E1
1.133810988E1,3.427151327E0,1.037084154E1,2.107268693E0,1.112386182E1
1.134803988E1,3.233785075E0,1.037658818E1,1.685178076E0,1.099867143E1
1.135796888E1,3.054048098E0,1.041275321E1,1.169810336E0,1.091426110E1
1.136789888E1,3.036026979E0,1.035776599E1,7.471104383E-2,1.079381109E1
1.137782888E1,3.833870199E0,8.977459402E0,-3.210123732E0,1.027610006E1
1.138775788E1,3.595162298E0,7.366895306E0,-1.473528750E0,8.328722914E0
1.139768788E1,3.220543470E0,6.508371436E0,-8.183062092E-1,7.307559377E0
1.140761788E1,2.878052754E0,5.017735487E0,-5.546809101E-1,5.811069436E0
1.141754688E1,2.581140499E0,2.468935938E0,1.162268451E0,3.756168113E0
1.142747688E1,1.192138367E0,-3.929829440E0,7.614443759E-1,4.176667434E0
1.143740588E1,-4.995235401E0,-1.970391690E1,-3.745059764E0,2.066935390E1
1.144733588E1,-1.220204681E1,-4.102107124E1,-5.597141933E0,4.316186083E1
1.145726588E1,-1.708068873E1,-5.683412221E1,-5.072083018E0,5.956167728E1
1.146719533E1,-1.370751539E1,-4.750055334E1,-6.454914436E0,4.985844428E1
1.147712533E1,-9.300293534E0,-2.053686213E1,-6.631349491E0,2.349963748E1
1.148705533E1,-6.001426025E0,-6.422077643E0,-4.529960757E0,9.888414435E0
1.149698433E1,-2.905531159E0,-5.374363017E-1,-2.207335603E0,3.688262404E0
1.150691433E1,-2.010133285E0,1.637161911E0,-8.580847442E-1,2.730795557E0
1.151684433E1,-3.249714060E0,2.810826731E-1,-1.738190103E-1,3.266475469E0
1.152677333E1,-5.995435553E0,-4.785780535E0,-2.642774829E-1,7.675857306E0
1.153670333E1,-7.194990674E0,-7.963084431E0,-1.030793953E-1,1.073262455E1
1.154663333E1,-5.963791591E0,-8.649438790E0,-4.835729206E-1,1.051729263E1
1.155656233E1,-3.693749862E0,-8.339326445E0,-1.328902402E0,9.217056754E0
1.156649233E1,-1.360596065E0,-7.409507475E0,-1.931936570E0,7.777171824E0
1.157642133E1,6.349197654E-1,-6.058414743E0,-1.726591712E0,6.331558358E0
1.158635133E1,2.229912141E0,-4.465525610E0,-1.150927484E0,5.122310144E0
1.159628133E1,3.445091462E0,-3.014680549E0,-4.950030577E-1,4.604561002E0
1.160621033E1,4.039947714E0,-1.750776234E0,5.314190783E-2,4.403319091E0
1.161614033E1,2.958631186E0,-3.298566377E-1,8.070771432E-1,3.084424973E0
1.162607033E1,1.473141957E0,1.163929206E0,1.535663602E0,2.425518732E0
1.163599933E1,8.047122368E-1,2.557377414E0,2.152198845E0,3.437979187E0
1.164592933E1,5.129551792E-1,3.859958721E0,2.610346756E0,4.687890201E0
1.165585933E1,3.867526773E-1,5.054709186E0,2.753098340E0,5.768813835E0
1.166578833E1,3.584683795E-1,6.024728934E0,2.639321756E0,6.587251144E0
1.167571833E1,4.536866319E-1,7.022021849E0,2.492090328E0,7.464927100E0
1.168564733E1,8.111658087E-1,8.114088775E0,2.361224964E0,8.489511761E0
1.169557733E1,9.983269957E-1,9.110208154E0,2.216245590E0,9.428907356E0
1.170550733E1,9.790282604E-1,9.915224154E0,1.792441739E0,1.012338944E1
1.171543633E1,1.073932664E0,1.065213471E1,1.410411565E0,1.079863723E1
1.172536633E1,1.430434917E0,1.120105377E1,1.013100278E0,1.133737720E1
1.173529633E1,1.900428995E0,1.154063550E1,3.704210385E-1,1.170192761E1
1.174522533E1,2.315520203E0,1.170353074E1,-5.117576694E-1,1.194136347E1
1.175515533E1,2.637938012E0,1.170091353E1,-1.320576113E0,1.206706326E1
1.176508533E1,2.795068192E0,1.165734592E1,-1.788616490E0,1.212044839E1
1.177501433E1,2.951752522E0,1.163934469E1,-2.017637894E0,1.217612625E1
1.178494433E1,3.135125298E0,1.166684414E1,-2.063450829E0,1.225569632E1
1.179487333E1,3.426418963E0,1.165432642E1,-1.848641083E0,1.228743851E1
1.180480333E1,3.784087298E0,1.164614617E1,-1.585977724E0,1.234776751E1
1.181473333E1,4.103103490E0,1.163359453E1,-1.267526665E0,1.240091141E1
1.182466233E1,4.456030317E0,1.152928138E1,-5.950114954E-1,1.237475551E1
1.183459233E1,4.770495914E0,1.131057095E1,2.053460276E-1,1.227716635E1
1.184452233E1,5.270797718E0,1.099712745E1,1.681255764E-1,1.219616280E1
1.185445133E1,6.290939214E0,9.360016994E0,-1.820167481E0,1.142360906E1
1.186438133E1,5.954521415E0,6.855483792E0,-3.733040228E0,9.817819139E0
1.187431133E1,4.100401784E0,5.567906440E0,-5.585683730E0,8.889023548E0
1.188424033E1,1.926067573E0,3.637593788E0,-6.445356578E0,7.647512424E0
1.189417033E1,7.050460075E-1,2.304770681E0,1.060404326E0,2.633156870E0
1.190410033E1,3.895255731E-1,9.404012614E-1,5.836110620E0,5.924210655E0
1.191402933E1,-1.548004443E0,-3.650395682E0,7.754275682E0,8.709219124E0
1.192395933E1,-1.164189173E1,-1.966272210E1,6.345307209E0,2.371537912E1
1.193388833E1,-2.547038250E1,-4.434122320E1,4.630682555E0,5.134518167E1
1.194381833E1,-2.409244404E1,-5.144887402E1,2.920037516E0,5.688549126E1
1.195374833E1,-3.034099152E0,-2.955749971E1,2.307959168E0,2.980231907E1
1.196367733E1,7.482788290E0,-1.134138812E1,1.453038352E0,1.366493782E1
1.197360733E1,6.960522004E0,-3.719441943E0,-3.200438404E0,8.516215176E0
1.198353733E1,7.362084217E0,1.008720714E-1,-6.840000365E0,1.004967981E1
1.199346633E1,7.216882065E0,1.947485340E0,-8.294038006E0,1.116544456E1
1.200339633E1,4.459499470E0,5.660765487E-1,-7.587249382E0,8.818952963E0
1.201332633E1,4.327857596E-1,-2.544659720E0,-4.121102389E0,4.862723672E0
1.202325533E1,-2.044299005E0,-4.261202261E0,-2.442510617E-1,4.732511142E0
1.203318533E1,-4.080602235E0,-5.202065452E0,2.963599273E0,7.245393034E0
1.204311533E1,-5.460587229E0,-5.742797245E0,5.821427093E0,9.832941903E0
1.205304433E1,-5.290972366E0,-5.860061401E0,8.385014834E0,1.151708218E1
1.206297433E1,-3.544473955E0,-6.124124583E0,1.053915949E1,1.269417505E1
1.207290333E1,-2.771461521E0,-7.249610100E0,1.041356012E1,1.298768956E1
1.208283333E1,-2.594132427E0,-7.573852242E0,7.440703540E0,1.092963083E1
1.209276333E1,-1.797665495E0,-6.482888685E0,4.135797611E0,7.897105091E0
1.210269233E1,-1.118235847E0,-5.586143321E0,2.078020921E0,6.064125622E0
1.211262233E1,-7.120825468E-1,-4.846465278E0,3.987888418E-1,4.914704446E0
1.212255233E1,-2.113034633E-1,-4.061823317E0,-1.115385695E0,4.217480653E0
1.213248133E1,2.290266663E-2,-3.313137054E0,-3.620375784E0,4.907598444E0
1.214241133E1,-7.669883403E-1,-2.083833638E0,-9.047885606E0,9.316376317E0
1.215234133E1,-4.111514710E0,5.680277646E-2,-1.680345820E1,1.729924817E1
1.216227033E1,-2.882910621E0,2.281246748E0,-1.443351036E1,1.489434395E1
1.217220033E1,2.418560421E0,3.509959010E0,-8.383004562E0,9.404467675E0
1.218213033E1,4.250788954E0,4.478652610E0,-3.760688202E0,7.229821000E0
1.219205933E1,3.428136875E0,5.019945150E0,-1.099111651E0,6.177379555E0
1.220198933E1,2.471825340E0,5.846694666E0,-1.780746869E-1,6.350233824E0
1.221191833E1,2.275023556E0,7.133241738E0,1.796527042E-1,7.489402177E0
1.222184833E1,2.819696080E0,8.399973766E0,3.174687266E-2,8.860657601E0
1.223177833E1,3.582843384E0,9.139788634E0,-7.501420735E-1,9.845568349E0
1.224170733E1,3.877694496E0,9.575192776E0,-1.582551255E0,1.045109084E1
1.225163733E1,3.962565954E0,9.898531523E0,-1.937872517E0,1.083689094E1
1.226156733E1,4.177537376E0,1.009744678E1,-1.736699063E0,1.106464521E1
1.227149633E1,4.443846766E0,1.020840121E1,-1.294825560E0,1.120873778E1
1.228142633E1,4.560778800E0,1.028702989E1,-9.576949865E-1,1.129339926E1
1.229135633E1,4.376426615E0,1.034444253E1,-6.266098487E-1,1.124958848E1
1.230128533E1,4.271537799E0,1.031515032E1,-2.721411109E-1,1.116791932E1
1.231121533E1,4.161930865E0,1.027989979E1,2.179023385E-2,1.109046812E1
1.232114433E1,3.994980286E0,1.020947476E1,1.981188691E-1,1.096505784E1
1.233107433E1,3.835191670E0,1.015482200E1,4.600343692E-1,1.086465539E1
1.234100433E1,3.723060493E0,1.015896183E1,8.989322233E-1,1.085696846E1
1.235093333E1,3.784568816E0,1.016061191E1,1.459886026E0,1.094039592E1
1.236086333E1,4.151467272E0,9.977941389E0,1.079070977E0,1.086086502E1
1.237079333E1,4.824571549E0,8.546001545E0,1.248720411E-1,9.814592506E0
1.238072233E1,4.885937492E0,7.576088217E0,7.348554052E-2,9.015259174E0
1.239065233E1,4.732316811E0,7.148617576E0,-3.762613106E-1,8.581324387E0
1.240058233E1,5.040476478E0,5.741856428E0,-6.004726486E-1,7.663934092E0
1.241051133E1,6.271848639E0,2.623950888E0,1.159977658E0,6.896865359E0
1.242044133E1,8.788202573E0,-1.841411000E0,4.650619222E0,1.011195125E1
1.243037133E1,7.135748439E0,-1.367430437E1,2.543783222E0,1.563254103E1
1.244030033E1,-6.349207887E-1,-3.697389988E1,-7.611997722E0,3.775466734E1
1.245023033E1,-8.254117895E0,-5.894329242E1,-1.098524708E1,6.052369649E1
1.246015996E1,-1.134280081E1,-5.548494503E1,-8.868300072E0,5.732263951E1
1.247008896E1,-8.221053060E0,-2.809654949E1,-6.700637827E0,3.003165586E1
1.248001896E1,-5.362058136E0,-1.142842275E1,-4.595777602E0,1.343434724E1
1.248994796E1,-3.481884774E0,-3.301416895E0,-1.456329896E0,5.014356575E0
1.249987796E1,-3.608955880E0,-1.234312141E-1,3.797357261E-1,3.630977421E0
1.250980796E1,-5.283347012E0,-6.525638849E-1,8.750910786E-1,5.394940192E0
1.251973696E1,-6.698677256E0,-4.604925570E0,8.189059143E-1,8.169958591E0
1.252966696E1,-6.878818860E0,-8.836728616E0,-3.165448666E-1,1.120295149E1
1.253959696E1,-5.713244247E0,-1.000251607E1,-9.966299875E-1,1.156221254E1
1.254952596E1,-4.489525215E0,-8.755074003E0,-9.280653906E-1,9.882735594E0
1.255945596E1,-4.043665081E0,-6.175065526E0,-5.291195145E-1,7.400177633E0
1.256938596E1,-3.248853934E0,-3.193073251E0,-1.015860164E-1,4.556433736E0
1.257931496E1,-2.241016589E0,-9.242173380E-1,4.242871240E-2,2.424486179E0
1.258924496E1,-1.384078045E0,7.191864753E-1,3.758075666E-1,1.604410343E0
1.259917496E1,-7.069038141E-1,1.855426776E0,8.304777002E-1,2.152211592E0
1.260910396E1,-1.354636145E-1,2.660924587E0,1.350857966E0,2.987254139E0
1.261903396E1,-7.528816402E-2,3.125772969E0,1.460251039E0,3.450863378E0
1.262896296E1,4.964783102E-1,3.565963057E0,1.864270105E0,4.054390986E0
1.263889296E1,1.621694417E0,4.369877442E0,2.445993218E0,5.263896319E0
1.264882296E1,2.720261839E0,5.423666739E0,2.882984880E0,6.717706989E0
1.265875196E1,3.558150008E0,6.658882275E0,2.894935420E0,8.085901045E0
1.266868196E1,4.069217706E0,7.897365820E0,2.624263129E0,9.263567164E0
1.267861196E1,4.159750438E0,8.807756247E0,2.224801383E0,9.991488128E0
1.268854096E1,3.996897588E0,9.390165823E0,1.787227192E0,1.036072322E1
1.269847096E1,4.045008186E0,9.931523852E0,8.348268592E-1,1.075612352E1
1.270840096E1,4.296762103E0,1.024451127E1,-4.267157650E-1,1.111729563E1
1.271832996E1,4.325199451E0,1.034641187E1,-1.257324443E0,1.128434551E1
1.272825996E1,4.077141560E0,1.032887724E1,-1.555661080E0,1.121288855E1
1.273818996E1,3.817688030E0,1.028516579E1,-1.435040038E0,1.106429922E1
1.274811896E1,3.661015687E0,1.031831600E1,-1.138613101E0,1.100759377E1
1.275804896E1,3.618452927E0,1.037700684E1,-9.955340731E-1,1.103478865E1
1.276797796E1,3.618787388E0,1.043027264E1,-1.053952435E0,1.109040239E1
1.277790796E1,3.563024831E0,1.041340927E1,-1.163549137E0,1.106743354E1
1.278783796E1,3.504419651E0,1.044263365E1,-1.342475106E0,1.109647665E1
1.279776696E1,3.567147996E0,1.053152536E1,-1.668658522E0,1.124375349E1
1.280769696E1,3.620560556E0,1.063429135E1,-1.995423737E0,1.140957173E1
1.281762696E1,3.874898065E0,1.074319574E1,-2.956330014E0,1.179707493E1
1.282755596E1,4.751669926E0,1.024339562E1,-6.400917739E0,1.297987939E1
1.283748596E1,4.255279324E0,8.291007979E0,-6.125655384E0,1.115221365E1
1.284741596E1,3.165564148E0,7.400836054E0,-2.795397098E0,8.520998510E0
1.285734496E1,1.583221639E0,5.613339890E0,-2.518794562E0,6.352991541E0
1.286727496E1,8.026490468E-1,3.802839026E0,2.390565122E0,4.562963045E0
1.287720496E1,-8.553482473E-2,1.558784662E0,7.330416867E0,7.494807354E0
1.288713396E1,-2.606358955E0,-3.842925197E0,8.575753348E0,9.752165224E0
1.289706396E1,-9.244899352E0,-1.673733204E1,7.345469939E0,2.048322183E1
1.290699296E1,-1.598156655E1,-3.227575098E1,7.791639390E0,3.684893778E1
1.291692296E1,-1.645845844E1,-3.937389656E1,7.562227392E0,4.334018768E1
1.292685296E1,-4.524044545E0,-2.980560642E1,7.026339433E0,3.095497697E1
1.293678196E1,3.779017469E0,-1.485630147E1,3.126574037E0,1.564500341E1
1.294671196E1,4.521261270E0,-7.131816187E0,-1.777712603E0,8.629302851E0
1.295664196E1,5.260037087E0,-2.711764373E0,-6.271245791E0,8.622655040E0
1.296657096E1,6.537126288E0,-8.833569950E-1,-1.012938661E1,1.208796148E1
1.297650096E1,5.843370523E0,-4.254972637E0,-1.097377367E1,1.314052814E1
1.298643096E1,2.177029485E0,-8.387303435E0,-7.744667537E0,1.162179812E1
1.299635996E1,-1.354693594E0,-9.415395389E0,-2.566706647E0,9.852555408E0
1.300628996E1,-3.425267939E0,-9.259872317E0,1.952539673E0,1.006429863E1
1.301621996E1,-3.757246239E0,-8.294505783E0,5.712326235E0,1.074925097E1
1.302614896E1,-3.019303065E0,-7.542691845E0,7.802636833E0,1.126452541E1
1.303607896E1,-2.276334648E0,-7.207814203E0,7.814735892E0,1.087218387E1
1.304600896E1,-1.729042426E0,-7.218931514E0,6.583479506E0,9.921933396E0
1.305593796E1,-1.427379016E0,-7.228772963E0,5.291759402E0,9.071674981E0
1.306586796E1,-9.925011224E-1,-6.631985668E0,4.258971548E0,7.943999687E0
1.307579696E1,-7.841578120E-1,-5.422987878E0,2.816773349E0,6.160999359E0
1.308572696E1,-7.809514913E-1,-4.201855946E0,1.081143157E0,4.408440671E0
1.309565696E1,-7.939077517E-1,-3.212859060E0,-8.250153045E-1,3.410777493E0
1.310558596E1,-8.232221827E-1,-1.855411574E0,-3.459104022E0,4.010691649E0
1.311551596E1,-1.850304908E0,1.052761942E-1,-8.023636442E0,8.234892415E0
1.312544596E1,-3.623599939E0,2.737393304E0,-1.244045299E1,1.324343872E1
1.313537496E1,-6.100847402E-1,4.495544046E0,-9.299932176E0,1.034750492E1
1.314530496E1,3.796122329E0,5.759838370E0,-5.257384205E0,8.673313754E0
1.315523496E1,4.845700462E0,6.755936115E0,-3.082268515E0,8.867009922E0
1.316516396E1,3.765048471E0,7.399283034E0,-2.396258556E0,8.641008880E0
1.317509396E1,3.285855992E0,8.034319305E0,-1.945263982E0,8.895571272E0
1.318502396E1,3.428255574E0,8.709468060E0,-1.446338612E0,9.470990738E0
1.319495296E1,3.767210771E0,9.140679165E0,-1.218800720E0,9.961393867E0
1.320488296E1,4.036185030E0,9.390911928E0,-8.794528091E-1,1.025931058E1
1.321481296E1,4.495448444E0,9.549292535E0,-3.853671795E-1,1.056156014E1
1.322474196E1,5.056451072E0,9.710599673E0,-2.490796924E-2,1.094824478E1
1.323467196E1,5.705468035E0,9.853902065E0,2.901248256E-1,1.139016786E1
1.324460096E1,5.923587890E0,9.939899404E0,6.287633783E-1,1.158817661E1
1.325453096E1,5.799950854E0,1.001917245E1,7.741397774E-1,1.160269532E1
1.326446096E1,5.443402262E0,1.011327753E1,5.687083805E-1,1.149923649E1
1.327438996E1,4.828187759E0,1.023660818E1,1.411810311E-1,1.131898741E1
1.328431996E1,4.154598749E0,1.040251006E1,-2.105231524E-1,1.120344707E1
1.329424996E1,3.589188198E0,1.053403265E1,-3.770658509E-1,1.113509292E1
1.330417896E1,3.155577396E0,1.061937627E1,-5.411867058E-1,1.109151496E1
1.331410896E1,2.771929298E0,1.070744703E1,-6.113988654E-1,1.107731116E1
1.332403896E1,2.512943253E0,1.078765680E1,-9.681398678E-1,1.111871026E1
1.333396796E1,2.715653356E0,1.027960626E1,-2.241275036E0,1.086592802E1
1.334389796E1,2.511563895E0,8.801030779E0,-1.761017632E0,9.320261750E0
1.335382796E1,2.059720598E0,8.146875283E0,2.902908683E-1,8.408227792E0
1.336375696E1,2.157076300E0,8.011151467E0,5.579343740E-1,8.315215978E0
1.337368696E1,2.454925425E0,7.037226949E0,-2.548403692E-1,7.457490569E0
1.338361696E1,3.245771575E0,4.531046585E0,-2.193070736E0,5.989572232E0
1.339354596E1,3.348023297E0,-3.935316467E-1,-3.715116173E0,5.016593997E0
1.340347596E1,-1.147330715E0,-1.406557432E1,-6.641826532E0,1.559713462E1
1.341340496E1,-7.584971307E0,-3.625948707E1,-7.560417094E0,3.780796343E1
1.342333496E1,-1.293873517E1,-5.555033093E1,-6.492205639E0,5.740556478E1
1.343326496E1,-1.214708766E1,-5.419797286E1,-7.828753422E0,5.609154465E1
1.344319396E1,-9.607505075E0,-2.715520624E1,-6.763668473E0,2.958811570E1
1.345312396E1,-7.605323710E0,-9.062836352E0,-3.320231481E0,1.228820119E1
1.346305408E1,-3.898484564E0,-2.270536988E0,-1.029089490E0,4.627369153E0
1.347298308E1,-2.229102741E0,1.786885715E-1,9.408120283E-1,2.426098907E0
1.348291308E1,-3.110225222E0,-1.853929889E-1,1.914495934E0,3.656933985E0
1.349284308E1,-5.455709481E0,-4.751332834E0,8.116727623E-1,7.280023511E0
1.350277208E1,-4.249263416E0,-1.045083145E1,-8.353311816E-1,1.131255478E1
1.351270208E1,-9.393655734E-1,-1.264285670E1,-1.960052468E0,1.282832954E1
1.352263208E1,1.104673450E0,-1.148166984E1,-2.420250998E0,1.178586699E1
1.353256108E1,3.033388131E0,-9.017868340E0,-1.834571220E0,9.689635933E0
1.354249108E1,4.213121776E0,-6.772424093E0,-5.963503616E-1,7.998234615E0
1.355242108E1,3.561809780E0,-5.010919973E0,4.798483904E-1,6.166527577E0
1.356235008E1,2.743961481E0,-3.150105572E0,8.049584046E-1,4.254462099E0
1.357228008E1,1.543604852E0,-1.665933135E0,1.853814407E-1,2.278687216E0
1.358220908E1,3.673859681E-1,-3.167360705E-1,2.400996847E-1,5.412412092E-1
1.359213908E1,-3.862676507E-1,1.201996919E0,8.619287038E-1,1.528698918E0
1.360206908E1,-1.068044079E0,2.659689655E0,1.561786477E0,3.264022704E0
1.361199808E1,-1.564763440E0,3.958148675E0,2.217397492E0,4.799195474E0
1.362192808E1,-2.034509596E0,5.241038899E0,2.753292468E0,6.260058901E0
1.363185808E1,-2.120892998E0,6.450531363E0,3.035819695E0,7.437993224E0
1.364178708E1,-1.504406434E0,7.697274685E0,3.253341672E0,8.490907392E0
1.365171708E1,-4.334733921E-1,8.940897932E0,3.245574231E0,9.521623134E0
1.366164708E1,5.453706810E-1,9.959151946E0,2.847903925E0,1.037268979E1
1.367157608E1,8.925435555E-1,1.061588197E1,1.913157506E0,1.082375885E1
1.368150608E1,1.028706789E0,1.113687006E1,6.062124947E-1,1.120069667E1
1.369143608E1,1.311347745E0,1.156758298E1,-6.282342052E-1,1.165861429E1
1.370136508E1,1.668484275E0,1.179096884E1,-1.797086767E0,1.204326811E1
1.371129508E1,1.994019090E0,1.185557121E1,-2.734008350E0,1.232905035E1
1.372122508E1,2.260759128E0,1.182789517E1,-3.197776752E0,1.245937046E1
1.373115408E1,2.546772027E0,1.176818691E1,-3.393974226E0,1.250980943E1
1.374108408E1,2.963610090E0,1.172413867E1,-3.269981679E0,1.252721807E1
1.375101408E1,3.423813444E0,1.156143054E1,-2.427476256E0,1.229966729E1
1.376094308E1,3.732990819E0,1.131784021E1,-1.243060745E0,1.198223383E1
1.377087308E1,3.872392241E0,1.108965847E1,-2.480856657E-2,1.174634250E1
1.378080208E1,3.920559264E0,1.100063578E1,9.478207934E-1,1.171678867E1
1.379073208E1,4.021117048E0,1.097880461E1,1.608636854E0,1.180217122E1
1.380066208E1,4.173505720E0,1.095461468E1,1.966986973E0,1.188657943E1
1.381059108E1,4.252344606E0,1.089695061E1,1.839109536E0,1.184095820E1
1.382052108E1,4.299167063E0,1.043906919E1,1.151862892E0,1.134829463E1
1.383045108E1,4.045297624E0,9.345524670E0,1.649757544E-1,1.018481621E1
1.384038008E1,2.749944352E0,7.546728178E0,-3.897651043E0,8.927876779E0
1.385031008E1,1.153259499E0,4.731136551E0,-7.244543488E0,8.729093360E0
1.386024008E1,6.851537798E-1,3.741512843E0,1.010815260E0,3.935746632E0
1.387016908E1,2.875684047E-1,9.938266861E-1,5.260138829E0,5.360918538E0
1.388009908E1,-2.962385099E0,-4.290248305E0,7.924405099E0,9.485681429E0
1.389002908E1,-1.308937114E1,-1.965013889E1,6.908376535E0,2.460051344E1
1.389995808E1,-2.314814911E1,-3.999795352E1,4.183066503E0,4.640227514E1
1.390988808E1,-1.834415859E1,-4.440141678E1,3.627465241E0,4.817834026E1
1.391981808E1,1.952969589E0,-2.661388037E1,4.003982660E0,2.698415453E1
1.392974708E1,1.143076866E1,-1.176680346E1,2.312194891E0,1.656702692E1
1.393967708E1,1.100396051E1,-5.498520455E0,-1.461870571E0,1.238781416E1
1.394960608E1,8.978125985E0,-2.635558196E0,-5.789128243E0,1.100304135E1
1.395953608E1,6.901515412E0,-3.350412469E0,-8.254039543E0,1.126877755E1
1.396946608E1,3.011319569E0,-7.889658605E0,-8.210483633E0,1.177823416E1
1.397939508E1,1.546091527E-2,-1.142708257E1,-5.208928914E0,1.255831978E1
1.398932508E1,-7.643974391E-1,-1.068239756E1,-3.373633297E-1,1.071502380E1
1.399925508E1,-1.385580779E0,-8.177327582E0,3.830658324E0,9.135779314E0
1.400918408E1,-2.058859887E0,-6.465841713E0,6.177886223E0,9.176725520E0
1.401911408E1,-2.314858736E0,-5.499834325E0,6.911242840E0,9.130828340E0
1.402904408E1,-2.054284003E0,-5.383080631E0,6.405707778E0,8.615725853E0
1.403897308E1,-1.821782482E0,-5.512440337E0,5.433146245E0,7.951412957E0
1.404890308E1,-1.918927538E0,-5.598410779E0,4.747005894E0,7.586735208E0
1.405883308E1,-2.263028140E0,-5.738265068E0,4.163502889E0,7.442025172E0
1.406876208E1,-2.513185912E0,-5.657078817E0,3.426039187E0,7.075053971E0
1.407869208E1,-2.340696559E0,-5.171659346E0,2.734391928E0,6.300938025E0
1.408862208E1,-2.274338555E0,-4.358338546E0,1.802579641E0,5.236126823E0
1.409855108E1,-2.495766472E0,-2.751010884E0,1.117613411E-1,3.716100344E0
1.410848108E1,-2.858893767E0,-7.247132635E-1,-2.508361959E0,3.871738964E0
1.411841108E1,-4.465273888E0,1.871370964E0,-8.860042634E0,1.009658634E1
1.412834008E1,-4.326659501E0,4.323803721E0,-1.105304788E1,1.263270076E1
1.413827008E1,-1.173577989E0,5.764107422E0,-7.316299349E0,9.387782264E0
1.414820008E1,1.521347572E0,6.871625615E0,-4.631830364E0,8.425413316E0
1.415812908E1,2.061224794E0,8.128318559E0,-2.249737857E0,8.682138600E0
1.416805908E1,1.900050972E0,9.325834172E0,-1.478792998E0,9.631625274E0
1.417798808E1,2.137607264E0,1.029807645E1,-1.614906238E0,1.064084891E1
1.418791808E1,2.559605203E0,1.109161144E1,-1.927066863E0,1.154508596E1
1.419784808E1,2.807455226E0,1.169381384E1,-2.456815245E0,1.227448688E1
1.420777708E1,3.111663637E0,1.186964429E1,-2.465829898E0,1.251603864E1
1.421770708E1,3.705849506E0,1.154396023E1,-1.574256980E0,1.222598149E1
1.422763708E1,4.573567245E0,1.103824975E1,-3.151239932E-1,1.195239633E1
1.423756608E1,5.479008297E0,1.062319801E1,9.045584142E-1,1.198708029E1
1.424749608E1,6.033899707E0,1.038449362E1,1.776406335E0,1.214089259E1
1.425742608E1,6.081276187E0,1.028417645E1,2.338123784E0,1.217427731E1
1.426735508E1,5.804822170E0,1.022019387E1,2.843486938E0,1.209271438E1
1.427728508E1,5.275720489E0,1.017481948E1,3.177355936E0,1.189351793E1
1.428721508E1,4.557330405E0,1.011858447E1,3.079912087E0,1.151698183E1
1.429714408E1,3.827713666E0,1.002441272E1,2.698927395E0,1.106455835E1
1.430707408E1,3.354658425E0,9.978462961E0,2.513121593E0,1.082308812E1
1.431700408E1,3.261816042E0,9.923178706E0,2.570493304E0,1.075715368E1
1.432693308E1,3.155612187E0,9.616923770E0,2.457622161E0,1.041551812E1
1.433686308E1,3.108323123E0,9.040166697E0,1.881931036E0,9.743097606E0
1.434679308E1,3.301962440E0,8.321671947E0,1.173615411E0,9.029427063E0
1.435672208E1,3.738404464E0,7.204860774E0,8.131582475E-1,8.157629131E0
1.436665208E1,4.088020597E0,6.218835443E0,-1.023658011E0,7.512236844E0
1.437658208E1,4.449459801E0,3.470029544E0,-4.715763052E0,7.353721419E0
1.438651108E1,2.929100116E0,-4.300145302E0,-9.304543290E0,1.066045979E1
1.439644108E1,-1.374506153E0,-2.075324653E1,-1.141236747E1,2.372400978E1
1.440637008E1,-5.052001340E0,-3.757491179E1,-6.634166679E0,3.848907483E1
1.441630008E1,-6.208313379E0,-5.108562627E1,-6.075362313E0,5.181886137E1
1.442623008E1,-7.371315801E-1,-4.698134866E1,-7.923466036E0,4.765051730E1
1.443615908E1,1.904462404E0,-2.248767570E1,-8.870877525E0,2.424902067E1
1.444608908E1,-1.587151552E0,-8.282062908E0,-6.291353781E0,1.052106214E1
1.445601908E1,-2.209158180E0,-1.054414365E0,-3.838070254E0,4.552247005E0
1.446594833E1,-2.067920440E0,2.471736170E0,-2.971079031E0,4.383273349E0
1.447587833E1,-2.228189406E0,1.311688930E0,-1.911003246E0,3.215165514E0
1.448580833E1,-3.444189821E0,-3.318521755E0,-1.512141423E0,5.016134153E0
1.449573733E1,-4.819273387E0,-7.236003045E0,-6.733593611E-1,8.720008536E0
1.450566733E1,-5.909869738E0,-9.086078449E0,9.290184867E-1,1.087871579E1
1.451559733E1,-7.686681284E0,-9.652644995E0,1.578343745E0,1.243984701E1
1.452552633E1,-8.758302251E0,-8.906163132E0,1.812574872E0,1.262192647E1
1.453545633E1,-8.230302771E0,-7.272694323E0,1.200660392E0,1.104859954E1
1.454538633E1,-6.690558981E0,-5.243066128E0,4.804540157E-2,8.500331186E0
1.455531533E1,-4.172809317E0,-3.610776703E0,-7.534077434E-1,5.569350880E0
1.456524533E1,-1.584854766E0,-2.451770267E0,-1.009756840E0,3.089101965E0
1.457517533E1,6.340654141E-1,-1.363765987E0,-9.193517967E-1,1.762698030E0
1.458510433E1,1.318795344E0,-3.630711615E-1,-1.022623054E0,1.707864086E0
1.459503433E1,9.714872526E-1,6.250264227E-1,-7.554005476E-1,1.380244724E0
1.460496333E1,1.251336163E0,1.868908117E0,-1.403484515E-1,2.253521118E0
1.461489333E1,1.441070563E0,3.166231608E0,3.127371597E-1,3.492779909E0
1.462482333E1,1.702994542E0,4.538437466E0,4.260386574E-1,4.866118986E0
1.463475233E1,1.914816653E0,5.890360503E0,1.756480193E-1,6.196266771E0
1.464468233E1,1.863507336E0,7.251670074E0,-2.392049146E-1,7.491101218E0
1.465461233E1,1.885504415E0,8.547894874E0,-7.027815270E-1,8.781545168E0
1.466454133E1,1.817279980E0,9.597141470E0,-1.247896392E0,9.847074506E0
1.467447133E1,1.492437037E0,1.040327019E1,-1.942063801E0,1.068770372E1
1.468440133E1,1.385498187E0,1.106563460E1,-2.619250896E0,1.145549429E1
1.469433033E1,1.435970914E0,1.148329770E1,-3.015158851E0,1.195906859E1
1.470426033E1,1.735436649E0,1.178235706E1,-3.007161030E0,1.228326893E1
1.471419033E1,2.088926270E0,1.203003342E1,-2.767181944E0,1.251968901E1
1.472411933E1,2.173561209E0,1.214398863E1,-2.450528319E0,1.257799337E1
1.473404933E1,1.991376002E0,1.215782198E1,-2.066986055E0,1.249202325E1
1.474397933E1,1.715636953E0,1.205962734E1,-1.767508042E0,1.230861920E1
1.475390833E1,1.548486839E0,1.185330717E1,-1.429252464E0,1.203916380E1
1.476383833E1,1.446162611E0,1.165045323E1,-9.522810495E-1,1.177842459E1
1.477376833E1,1.414940819E0,1.147023385E1,-4.619557643E-1,1.156640503E1
1.478369733E1,1.390186339E0,1.138124157E1,-1.037997723E-1,1.146630072E1
1.479362733E1,1.444910576E0,1.112454763E1,1.341117748E-1,1.121879283E1
1.480355733E1,1.961454923E0,9.657742013E0,4.234682214E-1,9.864005856E0
1.481348633E1,1.938140320E0,8.014253415E0,1.902350682E0,8.461890085E0
1.482341633E1,1.657258206E0,6.933379814E0,3.690612831E0,8.027383352E0
1.483334633E1,1.589048827E0,5.289467878E0,5.663524203E0,7.910692322E0
1.484327533E1,9.507126801E-1,5.909371555E-1,7.092831631E0,7.180621273E0
1.485320533E1,-7.383708975E-1,-8.180238326E0,6.377558112E0,1.039878542E1
1.486313533E1,-3.639649084E0,-1.961265824E1,6.379381274E0,2.094277713E1
1.487306433E1,-4.498125592E0,-2.821071754E1,8.156173525E0,2.970859951E1
1.488299433E1,-1.600176956E0,-3.063039595E1,8.454949872E0,3.181615784E1
1.489292433E1,3.624111863E0,-2.494329344E1,4.471404401E0,2.559874082E1
1.490285333E1,7.738097021E0,-1.538288067E1,-8.016511610E0,1.899409438E1
1.491278333E1,9.378388361E0,-8.389538240E0,-1.550677615E1,1.996994308E1
1.492271233E1,7.535389257E0,-3.704863665E0,-1.173703295E1,1.443142573E1
1.493264233E1,3.963260311E0,-3.484118995E0,-7.539122704E0,9.202439275E0
1.494257233E1,1.141095537E0,-6.953033475E0,-3.769582987E0,7.991028058E0
1.495250133E1,-7.127551228E-1,-9.099095521E0,2.263024485E-1,9.129773927E0
1.496243133E1,-1.579083418E0,-9.266173861E0,3.641807292E0,1.008058742E1
1.497236133E1,-1.784898246E0,-8.647684625E0,6.373720000E0,1.089002377E1
1.498229033E1,-1.638078608E0,-7.868057821E0,7.942890487E0,1.129951967E1
1.499222033E1,-1.281519929E0,-7.501936752E0,7.784882348E0,1.088695281E1
1.500215033E1,-7.139890315E-1,-7.056005867E0,6.947128372E0,9.927718355E0
1.501207933E1,-5.296367007E-1,-6.569536235E0,6.058453335E0,8.952328088E0
1.502200933E1,-7.201889804E-1,-5.976444966E0,5.443548442E0,8.115958738E0
1.503193933E1,-8.374467042E-1,-5.510088587E0,4.773643470E0,7.338260366E0
1.504186833E1,-6.153557128E-1,-5.044718049E0,3.972928097E0,6.450736432E0
1.505179833E1,-3.876948099E-1,-4.207338295E0,3.162789352E0,5.277806294E0
1.506172833E1,-4.780920330E-1,-3.086994234E0,2.195703152E0,3.818274182E0
1.507165733E1,-8.291762562E-1,-1.921238943E0,7.890197718E-1,2.236346248E0
1.508158733E1,-1.157042063E0,-7.309253454E-1,-8.544021678E-1,1.613381933E0
1.509151733E1,-1.560011701E0,1.034477699E0,-2.883061479E0,3.437415323E0
1.510144633E1,-2.711405938E0,3.532363202E0,-6.782845001E0,8.113957004E0
1.511137633E1,-3.653023421E0,6.362249517E0,-1.063465738E1,1.291970343E1
1.512130633E1,-2.656880068E0,8.171907213E0,-9.997838295E0,1.318316539E1
1.513123533E1,-1.130069734E0,9.103303177E0,-6.709591084E0,1.136511324E1
1.514116533E1,4.142927706E-2,1.013958416E1,-3.291880671E0,1.066064546E1
1.515109533E1,8.150078680E-1,1.122979518E1,-1.703224922E0,1.138742783E1
1.516102433E1,1.519588145E0,1.169014647E1,-9.772872519E-1,1.182893752E1
1.517095433E1,2.221608364E0,1.189041126E1,-6.869273865E-1,1.211566312E1
1.518088333E1,2.976118162E0,1.180597747E1,-6.823957944E-1,1.219442690E1
1.519081333E1,3.863521722E0,1.137985812E1,-5.296688604E-1,1.202948544E1
1.520074333E1,4.421127117E0,1.058246981E1,-1.401531180E-1,1.146972865E1
1.521067233E1,4.577752682E0,9.806365955E0,5.410522199E-1,1.083574503E1
1.522060233E1,4.414545491E0,9.333683474E0,1.350751255E0,1.041299131E1
1.523053233E1,4.250262120E0,8.996260539E0,2.098639519E0,1.016866361E1
1.524046133E1,4.017285952E0,8.783061701E0,2.446794287E0,9.963310773E0
1.525039133E1,3.749003711E0,8.704406126E0,2.422828889E0,9.782219311E0
1.526032133E1,3.414867496E0,8.620903208E0,2.184494040E0,9.526452979E0
1.527025033E1,2.992897916E0,8.551156451E0,1.812988855E0,9.239407079E0
1.528018033E1,2.562838421E0,8.372919284E0,1.111759179E0,8.826659990E0
1.529011033E1,2.190164962E0,7.830277206E0,-3.383652136E-2,8.130879940E0
1.530003933E1,2.057687813E0,6.631644191E0,-1.964377799E0,7.216062912E0
1.530996933E1,2.356470008E0,4.416879115E0,-4.045779727E0,6.436622221E0
1.531989933E1,2.066310410E0,2.845874941E0,-1.086434888E0,3.680894410E0
1.532982833E1,2.061165152E0,2.256427656E0,2.480134526E-1,3.066166699E0
1.533975833E1,2.052215258E0,-3.088440835E-2,-2.138968642E0,2.964410256E0
1.534968833E1,1.220298850E0,-4.553233845E0,-3.554894278E0,5.904095279E0
1.535961733E1,-5.146836162E-2,-1.005888323E1,-2.683742176E0,1.041087186E1
1.536954733E1,-1.265303846E0,-1.570900561E1,-1.037938812E0,1.579402318E1
1.537947733E1,-2.796046724E0,-2.127215183E1,-2.091444666E0,2.155681938E1
1.538940633E1,-4.487954653E0,-2.585720155E1,-6.178865047E0,2.696136091E1
1.539933633E1,-5.787526106E0,-2.687542633E1,-7.459508185E0,2.848557988E1
1.540926633E1,-5.968324937E0,-1.993666181E1,-4.239819578E0,2.123834873E1
1.541919533E1,-4.393879969E0,-1.263465306E1,-1.390561438E0,1.344895164E1
1.542912533E1,-3.758374459E0,-9.447197810E0,-1.181700064E0,1.023578722E1
1.543905533E1,-4.634433252E0,-8.499364738E0,-2.456057446E0,9.987461674E0
1.544898433E1,-5.000909539E0,-8.599815225E0,-3.083851941E0,1.041518415E1
1.545891433E1,-4.839975454E0,-9.249863053E0,-2.802858730E0,1.080931755E1
1.546884421E1,-4.397153825E0,-9.496130819E0,-2.161624703E0,1.068569528E1
1.547877321E1,-4.221032182E0,-9.332933276E0,-1.331506021E0,1.032926253E1
1.548870321E1,-4.189626494E0,-8.447091215E0,-5.913520154E-1,9.447540281E0
1.549863321E1,-3.795449607E0,-6.453585364E0,-1.060285847E-1,7.487686147E0
1.550856221E1,-2.844747598E0,-4.283543887E0,-4.164769980E-1,5.158952434E0
1.551849221E1,-1.077682337E0,-2.374267763E0,-8.771804349E-1,2.750998390E0
1.552842121E1,5.613116527E-1,-7.274877673E-1,-1.387188471E0,1.663911379E0
1.553835121E1,1.550128298E0,1.025461877E0,-1.682735109E0,2.507203073E0
1.554828121E1,2.179312530E0,2.682538819E0,-1.666673977E0,3.837084801E0
1.555821021E1,2.545854599E0,4.089850191E0,-1.517817900E0,5.050942625E0
1.556814021E1,2.493861449E0,5.173038704E0,-1.371474956E0,5.904288096E0
1.557807021E1,2.285817516E0,5.999639701E0,-1.041473308E0,6.504252832E0
1.558799921E1,1.971629663E0,6.676425676E0,-6.387018907E-1,6.990702643E0
1.559792921E1,1.624205212E0,7.206903207E0,-2.083970865E-1,7.390597117E0
1.560785921E1,1.653570806E0,7.652670370E0,5.152333458E-2,7.829451759E0
1.561778821E1,1.950552204E0,8.150671295E0,2.026832056E-1,8.383267677E0
1.562771821E1,2.208101150E0,8.766067353E0,2.555782878E-1,9.043504177E0
1.563764821E1,2.341125160E0,9.456726433E0,1.427913451E-1,9.743250546E0
1.564757721E1,2.295303601E0,1.008623650E1,-1.042289579E-1,1.034463383E1
1.565750721E1,2.235340696E0,1.063980527E1,-2.456976628E-1,1.087485961E1
1.566743721E1,2.236612466E0,1.103693295E1,-2.961170340E-1,1.126516798E1
1.567736621E1,2.192980104E0,1.130588733E1,-2.791343808E-1,1.151998985E1
1.568729621E1,2.299198285E0,1.126713784E1,-3.907928109E-1,1.150597353E1
1.569722621E1,2.439894280E0,1.112310688E1,-6.428078055E-1,1.140569124E1
1.570715521E1,2.497974088E0,1.112236545E1,-7.110927594E-1,1.142158223E1
1.571708521E1,2.537499220E0,1.110461798E1,-7.238712645E-1,1.141382637E1
1.572701521E1,2.595240474E0,1.104634697E1,-5.747655112E-1,1.136166405E1
1.573694421E1,2.673677949E0,1.108041285E1,-7.002432507E-1,1.141991433E1
1.574687421E1,2.872072222E0,1.127669920E1,-2.049783547E0,1.181585191E1
1.575680421E1,3.534261793E0,1.082199866E1,-4.604572399E0,1.228042135E1
1.576673321E1,3.004763671E0,9.626801471E0,-2.154256918E0,1.031235832E1
1.577666321E1,2.937553436E0,9.349830560E0,2.785028450E-1,9.804392665E0
1.578659321E1,2.043632861E0,7.871630470E0,4.865257645E-1,8.147128871E0
1.579652221E1,1.109541988E0,6.605772015E0,2.506235912E0,7.151819754E0
1.580645221E1,1.147053557E0,4.798257909E0,6.218967590E0,7.938171623E0
1.581638221E1,9.501292741E-1,1.131463126E0,8.833279928E0,8.955991778E0
1.582631121E1,-2.221277997E0,-4.792080325E0,8.696803576E0,1.017509225E1
1.583624121E1,-9.572718819E0,-2.194192934E1,2.574132611E0,2.407719600E1
1.584617121E1,-1.262593954E1,-4.126134971E1,-4.107847921E0,4.334498522E1
1.585610021E1,-1.701144483E0,-4.380868687E1,-9.353111433E0,4.482829052E1
1.586603021E1,1.329730163E1,-2.614531725E1,-9.454927245E0,3.081868742E1
1.587596021E1,1.644898595E1,-1.171317046E1,-7.459708160E0,2.152707010E1
1.588588921E1,1.702872452E1,-5.910255069E0,-6.132042882E0,1.903970913E1
1.589581921E1,1.306315456E1,-5.513653634E0,-5.321488985E0,1.514478882E1
1.590574921E1,6.198069642E0,-9.454362404E0,-1.719305935E0,1.143490484E1
1.591567821E1,2.255329842E0,-1.158628471E1,2.890213208E0,1.215244167E1
1.592560821E1,1.328133640E0,-1.166153370E1,5.778078175E0,1.308210589E1
1.593553721E1,9.550093603E-1,-1.197400890E1,6.816172961E0,1.381119640E1
1.594546721E1,-6.037013349E-1,-1.159878840E1,6.496151340E0,1.330775450E1
1.595539721E1,-1.726849720E0,-1.012847679E1,5.432856224E0,1.162256335E1
1.596532621E1,-1.992023874E0,-8.246961488E0,4.222438145E0,9.476788316E0
1.597525621E1,-1.899978174E0,-6.860564438E0,3.434871991E0,7.904151255E0
1.598518621E1,-2.123283194E0,-5.605258453E0,2.976157923E0,6.692142395E0
1.599511521E1,-2.313209675E0,-4.538086633E0,2.380034287E0,5.622253329E0
1.600504521E1,-2.251081401E0,-3.528117539E0,1.819404420E0,4.563465052E0
1.601497521E1,-1.790696199E0,-2.224141086E0,1.723811799E0,3.335404558E0
1.602490421E1,-1.859313713E-1,-6.829623896E-1,1.901571833E0,2.029035124E0
1.603483421E1,1.448515531E0,8.100001663E-1,1.857994874E0,2.491273261E0
1.604476421E1,1.611212260E0,2.349120643E0,1.137774611E0,3.067393650E0
1.605469321E1,9.092841339E-1,4.223557302E0,-5.181030679E-1,4.351283110E0
1.606462321E1,8.313688159E-1,5.912399828E0,-8.658340591E-1,6.033018685E0
1.607455321E1,1.361780565E0,7.023207080E0,-9.266316533E-2,7.154611831E0
1.608448221E1,1.276530792E0,7.957126118E0,6.782536268E-2,8.059155489E0
1.609441221E1,1.241207178E0,8.785951980E0,2.729760933E-1,8.877390574E0
1.610434221E1,1.289033016E0,9.495234441E0,4.975875270E-1,9.595242392E0
1.611427121E1,1.370501687E0,9.941648891E0,4.118182290E-1,1.004411528E1
1.612420121E1,1.507073057E0,1.013923099E1,1.010714432E-1,1.025112138E1
1.613413121E1,1.545357555E0,1.018293308E1,-1.179137814E-1,1.030020192E1
1.614406021E1,1.477870600E0,1.024536497E1,-2.894360054E-1,1.035545161E1
1.615399021E1,1.451538834E0,1.035808408E1,-4.088303383E-1,1.046728298E1
1.616392021E1,1.404611858E0,1.053675979E1,-4.248270778E-1,1.063845475E1
1.617384921E1,1.414887024E0,1.062271152E1,-2.362251735E-1,1.071912812E1
1.618377921E1,1.498217449E0,1.067764260E1,4.857632875E-2,1.078234978E1
1.619370921E1,1.550462613E0,1.078115001E1,3.965101453E-1,1.089928210E1
1.620363821E1,1.550938576E0,1.085701179E1,6.926307607E-1,1.098907880E1
1.621356821E1,1.530867278E0,1.091988339E1,1.008240000E0,1.107266706E1
1.622349821E1,1.501058464E0,1.098006527E1,1.385167966E0,1.116842425E1
1.623342721E1,1.581299513E0,1.089378844E1,1.772191662E0,1.114969946E1
1.624335721E1,1.636094940E0,1.085855779E1,2.022553064E0,1.116583203E1
1.625328721E1,1.635640173E0,1.104400575E1,1.937397869E0,1.133132350E1
1.626321621E1,1.685950639E0,1.115538468E1,1.916372451E0,1.144366726E1
1.627314621E1,1.801021212E0,1.111052016E1,2.324127889E0,1.149299379E1
1.628307621E1,2.164053051E0,1.028065876E1,2.494721575E0,1.079808807E1
1.629300521E1,2.945797425E0,8.596762394E0,2.148049514E0,9.337888564E0
1.630293521E1,3.455244275E0,7.777781489E0,2.028095201E0,8.749043835E0
1.631286521E1,3.806223102E0,5.982227862E0,-1.950142168E0,7.353736395E0
1.632279421E1,3.030195551E0,4.519070903E0,-5.041861099E0,7.417846739E0
1.633272421E1,2.419256825E0,5.221524986E0,6.771178052E-2,5.755146536E0
1.634265421E1,2.614247726E0,8.982206172E-1,-1.181698748E0,3.006244065E0
1.635258321E1,-3.594526121E0,-1.963605178E1,-8.174677624E0,2.157128883E1
1.636251321E1,-1.558765718E1,-5.627698547E1,-1.546526092E1,6.040900963E1
1.637244321E1,-1.690651772E1,-7.002642773E1,-1.710204276E1,7.404060230E1
1.638237221E1,-2.986605728E0,-6.104837425E1,-7.537193123E0,6.158435753E1
1.639230221E1,1.685154980E0,-2.952418929E1,-1.349390315E0,2.960301259E1
1.640223121E1,-2.850023541E-1,-9.921899335E0,3.132525626E0,1.040855559E1
1.641216121E1,9.717220183E-1,-1.184008545E0,5.654673858E0,5.858451703E0
1.642209121E1,4.506562393E-1,2.267649633E0,4.022492605E0,4.639587553E0
1.643202021E1,-1.828725466E0,2.178339261E0,1.658350027E0,3.292343175E0
1.644195021E1,-3.833027031E0,-6.252515405E-1,8.045672259E-1,3.966152308E0
1.645188021E1,-3.927036810E0,-3.584404591E0,1.207385713E0,5.452279765E0
1.646180921E1,-3.248274183E0,-4.347085580E0,1.581187685E0,5.652308617E0
1.647173896E1,-2.896781970E0,-2.946469270E0,2.031998802E0,4.604567957E0
1.648166896E1,-2.657333812E0,-1.480523189E0,2.635420786E0,4.024775102E0
1.649159796E1,-2.377416635E0,-5.363668460E-1,2.770210801E0,3.689697431E0
1.650152796E1,-1.812096862E0,6.929272145E-1,2.752024791E0,3.367117998E0
1.651145796E1,-7.087309228E-1,1.957507467E0,2.787051952E0,3.478763227E0
1.652138696E1,-5.718576908E-3,3.059623418E0,2.696846956E0,4.078518317E0
1.653131696E1,5.633676799E-1,4.202279284E0,2.427838783E0,4.885789136E0
1.654124696E1,9.990758778E-1,5.354578963E0,2.309278446E0,5.916285610E0
1.655117596E1,1.364567202E0,6.524468821E0,2.127929099E0,6.997057903E0
1.656110596E1,1.668696091E0,7.704864956E0,1.760929924E0,8.077769793E0
