"Time (s)","Linear Acceleration x (m/s^2)","Linear Acceleration y (m/s^2)","Linear Acceleration z (m/s^2)","Absolute acceleration (m/s^2)"
1.321700000E-2,-8.937024736E-1,-1.120504859E0,-9.290138090E-1,1.708011097E0
2.314700000E-2,-1.363490583E0,-9.767785442E-1,-1.294563020E0,2.118748760E0
3.307700000E-2,-1.375012814E0,-7.980157131E-1,-1.706181859E0,2.332069007E0
4.300700000E-2,-1.119915460E0,-5.085756147E-1,-1.883342553E0,2.249408581E0
5.293700000E-2,-7.049847579E-1,-6.203656071E-1,-1.545585743E0,1.808505539E0
6.286699997E-2,-4.569949865E-1,-7.104764628E-1,-1.222228870E0,1.485753894E0
7.279699997E-2,-6.569086584E-1,-5.569160083E-1,-4.313835973E-1,9.632114170E-1
8.272599999E-2,-7.521532233E-1,-8.690745860E-2,2.988389128E-1,8.139975882E-1
9.265599999E-2,-7.646706502E-1,3.558293849E-1,6.776624733E-1,1.081925220E0
1.025860000E-1,-7.903872894E-1,4.867292476E-1,4.316590011E-1,1.023692786E0
1.125160000E-1,-7.191648406E-1,1.226099727E-1,-7.753174067E-2,7.336500829E-1
1.224460000E-1,-3.250980274E-1,1.141434968E-2,-4.728280771E-1,5.739210793E-1
1.323760000E-1,-1.390212066E-1,1.146118587E-1,-7.929005688E-1,8.131138211E-1
1.423050000E-1,-2.983549096E-1,1.505845141E-1,-8.879260093E-1,9.487380808E-1
1.522350000E-1,-4.341534233E-1,1.755114868E-1,-6.031461418E-1,7.635959307E-1
1.621650000E-1,-4.684502667E-1,4.798763108E-1,-2.220024061E-1,7.064078103E-1
1.720950000E-1,-5.552217776E-1,6.061460558E-1,-1.415435493E-1,8.340976199E-1
1.820250000E-1,2.702592576E-1,6.547609761E-1,-9.028644758E-1,1.147569721E0
1.919550000E-1,5.999630637E-2,7.078262123E-1,-1.749520252E0,1.888236907E0
2.018840000E-1,-7.773516530E-1,5.105551895E-1,-1.990941846E0,2.197451167E0
2.118140000E-1,-8.634500031E-1,6.204927841E-1,-1.687519886E0,1.994562751E0
2.217440000E-1,-7.223856331E-1,9.441431871E-1,-1.324208404E0,1.779543553E0
2.316740000E-1,-7.125012074E-1,1.023979315E0,-1.115394393E0,1.673408575E0
2.416040000E-1,-2.473037468E-1,1.284907221E0,-1.310835822E0,1.852143693E0
2.515340000E-1,7.166227636E-1,1.348315012E0,-1.280359549E0,1.992692182E0
2.614630000E-1,1.635614591E0,8.270567867E-1,-9.837770766E-1,2.080162339E0
2.713930000E-1,2.270444017E0,6.066126636E-1,-1.455371391E0,2.764236033E0
2.813230000E-1,2.644809076E0,-8.500635338E-1,-3.454941974E0,4.433311076E0
2.912530000E-1,3.934161057E0,-8.682565606E-1,-3.507875648E0,5.341973815E0
3.011830000E-1,4.444744898E0,-3.846789622E-1,-1.615557618E0,4.744866861E0
3.111130000E-1,3.269699843E0,-1.178325343E0,-1.143762744E0,3.658904330E0
3.210430000E-1,1.551601212E0,-2.551942135E0,-4.583603114E-1,3.021583882E0
3.309720000E-1,4.665220012E-1,-3.888794850E0,-1.711702216E-1,3.920416739E0
3.409020000E-1,1.196805761E0,-2.540856983E0,-4.664750773E-1,2.847085745E0
3.508320000E-1,4.110494955E0,-2.707243890E0,-1.862875544E0,5.262665062E0
3.607620000E-1,-3.977545059E-1,-3.989433325E0,-5.511887190E0,6.815767551E0
3.706920000E-1,-1.008669989E0,-4.512506819E0,-6.008646167E0,7.581817836E0
3.806220000E-1,4.982151672E0,-5.481133175E0,-7.163992245E0,1.030472906E1
3.905510000E-1,2.068531182E0,-1.820409848E0,-6.244150379E0,6.825110052E0
4.004810000E-1,-1.380297089E0,1.438299860E0,-4.710608731E0,5.115052410E0
4.104110000E-1,-4.411755492E0,2.730303262E0,-1.891125197E0,5.522182263E0
4.203410000E-1,-1.166544549E1,4.075127779E0,2.895525988E0,1.269146783E1
4.302710000E-1,-9.957242246E0,4.001851349E0,3.416424025E0,1.126203536E1
4.402010000E-1,4.170302908E0,1.782874525E-2,-1.519669129E0,4.438596453E0
4.501307500E-1,4.264522602E0,-1.520250342E0,-1.071792290E0,4.652531874E0
4.600607500E-1,2.003446556E0,-6.704972953E-1,-3.644438539E0,4.212516704E0
4.699907500E-1,-1.056353448E0,8.221170589E-1,-3.006141275E0,3.290690571E0
4.799207500E-1,-2.883730985E0,3.287137409E0,7.106647432E-2,4.373354226E0
4.898507500E-1,-2.304444991E0,3.668547778E0,3.196895576E0,5.384129534E0
4.997807500E-1,-2.027622307E0,1.661831021E0,6.841367444E0,7.326475487E0
5.097097500E-1,-1.849764625E0,5.385490268E-2,8.536911464E0,8.735180986E0
5.196397500E-1,3.133210042E-1,7.187290768E-1,1.018049829E1,1.021064577E1
5.295697500E-1,2.342353368E0,1.628232628E0,1.083504029E1,1.120427860E1
5.394997500E-1,3.067756310E0,1.515814498E0,9.364477835E0,9.970068580E0
5.494297500E-1,3.112377582E0,1.369500352E0,7.052149043E0,7.829127126E0
5.593597500E-1,2.646570549E0,1.448131076E0,4.454056882E0,5.379594965E0
5.692887500E-1,1.913066874E0,1.005340877E0,1.644717098E0,2.715811016E0
5.792187500E-1,1.251586278E0,2.964283982E-1,-9.081661463E-1,1.574516991E0
5.891487500E-1,1.411223744E0,7.215567903E-1,-2.223112561E0,2.730279494E0
5.990787500E-1,1.971223281E0,1.245809960E0,-2.894685743E0,3.717118404E0
6.090087500E-1,2.766608332E0,6.283173819E-1,-4.028035181E0,4.926862269E0
6.189387500E-1,2.935981996E0,-5.812351629E-1,-5.445770969E0,6.214036212E0
6.288677500E-1,2.278524284E0,-1.268522446E0,-6.166258450E0,6.695040357E0
6.387977500E-1,1.270371920E0,-1.414433134E0,-6.348463537E0,6.627024610E0
6.487277500E-1,3.679989025E-1,-1.422021651E0,-6.043561061E0,6.219501513E0
6.586577500E-1,3.336041182E-2,-1.216127885E0,-4.866437028E0,5.016202677E0
6.685877500E-1,-3.268912223E-1,-1.133314062E0,-4.410788655E0,4.565776516E0
6.785177500E-1,1.911822002E0,-1.509070904E0,-3.278997501E0,4.084627641E0
6.884477500E-1,2.965657785E0,-2.751195656E0,-9.989225346E-1,4.166779316E0
6.983767500E-1,2.185226696E0,-3.309942428E0,3.234305477E-1,3.979389640E0
7.083067500E-1,3.438955101E0,-3.439492168E0,2.766635814E0,5.595604730E0
7.182367500E-1,3.963090742E0,-3.684874666E0,4.703825376E0,7.170102001E0
7.281667500E-1,4.084483616E0,-4.081502706E0,4.772167633E0,7.491011591E0
7.380967500E-1,3.702717152E0,-4.739957076E0,4.087317762E0,7.272102438E0
7.480267500E-1,2.627928164E0,-4.981316689E0,3.065405145E0,6.412193938E0
7.579557500E-1,1.396540216E0,-5.197515149E0,1.611004976E0,5.617813216E0
7.678857500E-1,7.279257238E-2,-5.415022801E0,4.888459396E-1,5.437530785E0
7.778157500E-1,-1.266130934E0,-5.297960958E0,-2.636123621E-1,5.453528155E0
7.877457500E-1,-2.190022582E0,-4.989841345E0,-8.097370416E-1,5.509118771E0
7.976757500E-1,-2.877790799E0,-4.504411349E0,-1.098553242E0,5.456942432E0
8.076057500E-1,-3.525486876E0,-4.042529259E0,-1.296346714E0,5.518298228E0
8.175347500E-1,-4.197774589E0,-3.827811022E0,-1.603273787E0,5.902875194E0
8.274647500E-1,-4.757551932E0,-3.818307835E0,-2.005477440E0,6.421504097E0
8.373947500E-1,-5.400347459E0,-3.786839874E0,-2.484681613E0,7.048230390E0
8.473247500E-1,-5.955153499E0,-3.647553350E0,-2.906851460E0,7.564276836E0
8.572547500E-1,-6.159797276E0,-3.355895988E0,-3.033888945E0,7.642618824E0
8.671847500E-1,-5.946544644E0,-2.997608433E0,-2.625724933E0,7.158315510E0
8.771137500E-1,-5.604966677E0,-2.606730838E0,-2.060977457E0,6.516005309E0
8.870437500E-1,-4.974434516E0,-2.240935751E0,-1.205828088E0,5.587558785E0
8.969737500E-1,-4.013285580E0,-1.806679124E0,-3.810870907E-1,4.417666576E0
9.069037500E-1,-2.789297867E0,-9.543015549E-1,3.467749349E-1,2.968354242E0
9.168337500E-1,-1.564685088E0,-5.088393241E-2,1.155793390E0,1.945941150E0
9.267637500E-1,-7.824527639E-1,5.247370995E-1,1.717468155E0,1.958897194E0
9.366927500E-1,-3.571818459E-1,1.150498590E0,2.353569204E0,2.643957994E0
9.466227500E-1,-2.174725682E-1,1.997225703E0,2.805464249E0,3.450628128E0
9.565527500E-1,-2.973315006E-1,2.951492028E0,3.191077597E0,4.356912604E0
9.664827500E-1,-7.415555835E-2,3.834746405E0,3.809607178E0,5.405912123E0
9.764127500E-1,5.333596230E-1,4.729086517E0,4.087243502E0,6.273299867E0
9.863427500E-1,1.399114745E0,5.757156837E0,4.108910360E0,7.210098561E0
9.962717500E-1,2.393130296E0,6.800046340E0,4.012834175E0,8.250487316E0
1.006201750E0,3.490867851E0,7.311620407E0,3.628675615E0,8.877682020E0
1.016131750E0,4.395399953E0,6.987298744E0,2.788723086E0,8.713143000E0
1.026061750E0,4.781731339E0,6.108207293E0,1.944635991E0,7.997297047E0
1.035991750E0,4.805985589E0,5.059923148E0,1.505983720E0,7.139209110E0
1.045921750E0,4.903673267E0,3.791646578E0,1.710967513E0,6.430396964E0
1.055850750E0,5.309049034E0,2.274026021E0,2.728686215E0,6.387716685E0
1.065780750E0,5.674239226E0,1.074254553E0,4.259518847E0,7.175967841E0
1.075710750E0,6.020900177E0,8.630659872E-1,5.584255255E0,8.257119872E0
1.085640750E0,6.667505749E0,1.195175265E0,6.767002555E0,9.574779392E0
1.095570750E0,8.022816662E0,8.687895343E-1,7.681804122E0,1.114138667E1
1.105500750E0,1.026779489E1,-6.740129337E-1,7.900578865E0,1.297308952E1
1.115430750E0,1.291960074E1,-2.876999378E0,7.546135855E0,1.523605510E1
1.125359750E0,1.500929153E1,-4.920750060E0,7.263087932E0,1.738519657E1
1.135289750E0,1.587967882E1,-5.787689828E0,7.573827683E0,1.852091841E1
1.145219750E0,1.525752455E1,-5.554096486E0,8.283555118E0,1.822792716E1
1.155149750E0,1.426365108E1,-5.292162275E0,8.771429250E0,1.756122703E1
1.165079750E0,1.319611089E1,-5.434171847E0,8.720446208E0,1.672464494E1
1.175009750E0,1.182095803E1,-5.549965428E0,7.850350113E0,1.523696696E1
1.184938750E0,9.500885775E0,-5.189503879E0,6.611090058E0,1.268480559E1
1.194868750E0,6.577992479E0,-4.778015433E0,4.638376322E0,9.360232445E0
1.204798750E0,3.613279311E0,-4.864553932E0,2.332049258E0,6.492928929E0
1.214728750E0,-3.179598927E-2,-4.976735396E0,3.007177694E-1,4.985913894E0
1.224658750E0,-3.672794026E0,-4.465760376E0,-1.269862627E0,5.919880302E0
1.234588750E0,-6.697720651E0,-3.511796790E0,-2.104305471E0,7.849858606E0
1.244517750E0,-9.175429167E0,-2.715296091E0,-2.728999041E0,9.950315021E0
1.254447750E0,-1.137489033E1,-1.991676257E0,-3.388758509E0,1.203489046E1
1.264377750E0,-1.271904592E1,-1.459255697E0,-3.733296336E0,1.333570612E1
1.274307750E0,-1.335894415E1,-9.953263508E-1,-3.749570891E0,1.391083553E1
1.284237750E0,-1.352916946E1,-2.678944243E-1,-3.682079989E0,1.402383353E1
1.294167750E0,-1.357600917E1,4.399728647E-1,-3.789596252E0,1.410186657E1
1.304096750E0,-1.361191341E1,8.618583910E-1,-3.849158914E0,1.417190922E1
1.314026750E0,-1.342563749E1,1.184216413E0,-3.660320746E0,1.396596071E1
1.323956750E0,-1.276629610E1,1.503041109E0,-3.222817453E0,1.325232059E1
1.333886750E0,-1.129174994E1,1.799075113E0,-2.468054763E0,1.169750325E1
1.343816750E0,-9.425207017E0,2.282939955E0,-1.562777726E0,9.822861924E0
1.353746750E0,-7.835574784E0,2.957419058E0,-7.392512689E-1,8.407678164E0
1.363675750E0,-6.567314293E0,3.673682803E0,-3.124769952E-1,7.531480879E0
1.373605750E0,-5.457864765E0,4.148877248E0,-2.321251789E-1,6.859690395E0
1.383535750E0,-4.631060286E0,4.211959057E0,-3.629711376E-1,6.270491728E0
1.393465750E0,-4.462609019E0,4.099011024E0,-8.894351757E-1,6.124366544E0
1.403395750E0,-5.242014799E0,4.045251723E0,-1.642306876E0,6.822019681E0
1.413325750E0,-6.119332205E0,3.982789134E0,-2.011803542E0,7.573386918E0
1.423255750E0,-6.570100492E0,3.767024830E0,-2.192670202E0,7.884446661E0
1.433184750E0,-6.599246523E0,3.473875843E0,-2.263923787E0,7.793793617E0
1.443114750E0,-5.838364722E0,3.013465497E0,-2.132580705E0,6.907631823E0
1.453044625E0,-4.983892388E0,2.141486307E0,-2.097187509E0,5.815783901E0
1.462974625E0,-4.274069644E0,1.012694189E0,-2.241801431E0,4.931419116E0
1.472904625E0,-2.990880627E0,-3.212378418E-1,-2.466338021E0,3.889907956E0
1.482834625E0,-1.254179810E0,-1.684352449E0,-2.496818386E0,3.262531567E0
1.492763625E0,1.651416253E0,-2.860737394E0,-2.002420515E0,3.862729864E0
1.502693625E0,5.453836618E0,-3.829840883E0,-1.138699640E0,6.760817400E0
1.512623625E0,9.585462241E0,-4.791213768E0,-2.345294809E-1,1.071876018E1
1.522553625E0,1.334409924E1,-5.424829751E0,8.798024726E-1,1.443148692E1
1.532483625E0,1.656475498E1,-5.525706500E0,1.914546804E0,1.756673075E1
1.542413625E0,1.931740893E1,-5.756014876E0,2.546275306E0,2.031692676E1
1.552342625E0,2.106332905E1,-6.077310605E0,2.898650740E0,2.211333785E1
1.562272625E0,2.076082452E1,-5.742141187E0,2.477209164E0,2.168226430E1
1.572202625E0,1.899857312E1,-4.853236354E0,1.486945771E0,1.966496101E1
1.582132625E0,1.684958805E1,-3.974832535E0,9.835847032E-1,1.733999280E1
1.592062625E0,1.474483132E1,-3.261554087E0,6.235657883E-1,1.511411989E1
1.601992625E0,1.312997186E1,-2.850667904E0,-5.495212813E-2,1.343597739E1
1.611921625E0,1.197973801E1,-2.395047598E0,-5.462977570E-1,1.222901537E1
1.621851625E0,1.091005773E1,-1.803920116E0,-6.889259648E-1,1.107962574E1
1.631781625E0,9.697950391E0,-1.293361418E0,-9.176591740E-1,9.826755513E0
1.641711625E0,8.159601163E0,-7.158231568E-1,-1.313141963E0,8.295531071E0
1.651641625E0,6.193509983E0,1.551111361E-1,-1.753880521E0,6.438922445E0
1.661571625E0,4.254888437E0,1.131871554E0,-2.154468003E0,4.901728390E0
1.671500625E0,2.502325879E0,2.241248577E0,-2.425004053E0,4.143123779E0
1.681430625E0,9.673925936E-1,3.538133234E0,-2.083464679E0,4.218419168E0
1.691360625E0,-1.911764699E-1,4.812881503E0,-1.461296960E0,5.033464573E0
1.701290625E0,-1.313838952E0,5.946127737E0,-1.245553413E0,6.215626369E0
1.711220625E0,-2.572989480E0,7.006504508E0,-6.367079902E-1,7.491113225E0
1.721150625E0,-3.835503327E0,7.923927966E0,1.161007060E-1,8.804158083E0
1.731079625E0,-4.928167838E0,8.533517740E0,6.436005418E-1,9.875322016E0
1.741009625E0,-5.990925010E0,8.133299217E0,1.158168968E0,1.016774773E1
1.750939625E0,-6.740097762E0,6.529821947E0,1.657503204E0,9.529680444E0
1.760869625E0,-6.045042161E0,5.242395453E0,2.186324219E0,8.294893513E0
1.770799625E0,-5.442604117E0,5.040361873E0,2.615006402E0,7.865459037E0
1.780729625E0,-6.130589265E0,4.520225143E0,2.553350437E0,8.033440019E0
1.790658625E0,-6.503678461E0,4.006813297E0,2.165991403E0,7.940019211E0
1.800588625E0,-6.650336570E0,3.574513733E0,1.778870936E0,7.756836128E0
1.810518625E0,-6.978676440E0,3.104139732E0,1.383193361E0,7.762140955E0
1.820448625E0,-7.207017812E0,2.682119574E0,1.021219722E0,7.757432621E0
1.830378625E0,-7.178702086E0,2.369694363E0,6.327304217E-1,7.586142814E0
1.840308625E0,-7.054787892E0,2.214754550E0,7.759372115E-1,7.434867078E0
1.850238625E0,-6.301796908E0,1.836031562E0,1.887045010E0,6.829684842E0
1.860167625E0,-4.533754431E0,1.088421772E0,3.042539608E0,5.567462479E0
1.870097625E0,-3.312112622E0,-8.113260224E-2,4.728064424E0,5.773323628E0
1.880027625E0,-3.027746737E0,-1.518725388E0,6.769389973E0,7.569571832E0
1.889957625E0,-2.808784883E0,-2.870365419E0,5.929204726E0,7.161266567E0
1.899887625E0,-1.316699409E-1,-3.806167846E0,4.521175901E0,5.911453473E0
1.909817625E0,1.679401612E0,-3.951174408E0,4.124100841E0,5.953182067E0
1.919746625E0,1.057802827E0,-3.722804092E0,3.928201575E0,5.514434218E0
1.929676625E0,1.247091231E0,-4.346048284E0,3.659444833E0,5.816778207E0
1.939606625E0,6.324365991E-1,-4.455158205E0,3.434496015E0,5.660757331E0
1.949536625E0,-1.530178914E0,-4.286447030E0,6.353524886E0,7.815520081E0
1.959466625E0,-1.409965423E0,-4.299553856E0,7.123292116E0,8.438925075E0
1.969396625E0,-1.612314752E0,-4.791063495E0,6.705911431E0,8.397803069E0
1.979325625E0,-1.073188898E0,-5.825412555E0,8.064542978E0,1.000619904E1
1.989255625E0,6.413269982E-1,-6.565826762E0,9.664785569E0,1.170168627E1
1.999185625E0,2.789267462E0,-7.143645689E0,9.654354721E0,1.232956819E1
2.009115625E0,4.478539174E0,-7.810848078E0,8.281826096E0,1.223336848E1
2.019045625E0,4.885724361E0,-7.971682761E0,5.999677123E0,1.110919233E1
2.028975625E0,4.995337143E0,-8.147233717E0,3.732181272E0,1.025962901E1
2.038904625E0,4.204239271E0,-7.816147410E0,1.702404558E0,9.036922565E0
2.048834625E0,3.035727602E0,-7.311193560E0,-8.692236900E-1,7.963965292E0
2.058764625E0,2.507605914E0,-7.396119690E0,-2.857730171E0,8.316086557E0
2.068694625E0,2.435192534E0,-6.952998392E0,-3.341955641E0,8.089685830E0
2.078624625E0,2.685119780E0,-5.715779600E0,-3.017787759E0,6.999074770E0
2.088554625E0,2.898739910E0,-4.101357511E0,-2.285377806E0,5.517859931E0
2.098483625E0,3.107174145E0,-2.641183217E0,-1.584453939E0,4.375028484E0
2.108413625E0,3.153287042E0,-1.592300318E0,-1.310606026E0,3.767801431E0
2.118343625E0,2.942349907E0,-1.098775144E0,-1.338466254E0,3.414120927E0
2.128273625E0,2.728221069E0,-9.523053154E-1,-1.406162394E0,3.213622301E0
2.138203625E0,2.589415186E0,-1.017093927E0,-1.673174327E0,3.246392365E0
2.148133625E0,2.299344904E0,-1.277031314E0,-2.337888141E0,3.519022154E0
2.158062625E0,2.100997555E0,-1.521846924E0,-3.253119478E0,4.160888742E0
2.167992625E0,1.965975844E0,-1.392723153E0,-4.109624889E0,4.763796336E0
2.177922625E0,1.821705153E0,-9.620447302E-1,-4.696246800E0,5.128242753E0
2.187852625E0,1.660262213E0,-4.189708355E-1,-4.888110902E0,5.179347002E0
2.197782625E0,1.764801220E0,1.527047145E-1,-4.379242342E0,4.723939623E0
2.207712625E0,2.172812765E0,4.253779221E-1,-3.682302184E0,4.296674419E0
2.217642625E0,2.457949605E0,8.709924728E-2,-3.503981987E0,4.281003656E0
2.227571625E0,2.533334248E0,-6.679017162E-1,-3.957217214E0,4.745886976E0
2.237501625E0,2.644875149E0,-1.415731362E0,-4.504289142E0,5.411864791E0
2.247431625E0,2.825953478E0,-1.841598696E0,-4.502352544E0,5.625715710E0
2.257361625E0,2.995685284E0,-2.034577863E0,-4.184187999E0,5.533630509E0
2.267291625E0,2.821773888E0,-2.154463618E0,-3.885991110E0,5.263558517E0
2.277221625E0,2.412343954E0,-2.048732218E0,-3.258680180E0,4.542653803E0
2.287150625E0,2.211486542E0,-1.628431140E0,-2.088010889E0,3.449963793E0
2.297080625E0,2.379023742E0,-1.262282297E0,-1.065093720E0,2.896124168E0
2.307010625E0,1.982328898E0,-1.351761069E0,-1.985071242E-1,2.407548738E0
2.316940625E0,1.371224111E0,-1.619895083E0,9.581621790E-1,2.328602672E0
2.326870625E0,1.005648294E0,-2.035043301E0,1.883654795E0,2.949726278E0
2.336800625E0,4.859974685E-1,-2.412102757E0,2.274149398E0,3.350550511E0
2.346729625E0,2.686196253E-2,-2.375170573E0,1.925167102E0,3.057519450E0
2.356659625E0,-4.596445061E-1,-1.759947592E0,1.388438314E0,2.288328986E0
2.366589625E0,-6.132320040E-1,-7.004917574E-1,1.022034824E0,1.382496790E0
2.376519625E0,-7.709992379E-2,4.729836130E-1,9.654752916E-1,1.077868468E0
2.386449625E0,6.738451186E-1,1.429006881E0,1.254371014E0,2.017318654E0
2.396379625E0,1.444867745E0,1.780967748E0,1.728511791E0,2.871801165E0
2.406308625E0,2.045953621E0,1.462250640E0,2.451679051E0,3.512098137E0
2.416238625E0,2.393731682E0,7.916270453E-1,2.891438200E0,3.836279396E0
2.426168625E0,2.351712421E0,2.857762331E-1,2.859451007E0,3.713311113E0
2.436098625E0,1.943616237E0,1.722800231E-1,2.407410951E0,3.098863012E0
2.446028625E0,1.382549583E0,4.439884400E-1,6.188634574E-1,1.578467948E0
2.455958250E0,-1.577613866E-1,1.390589504E0,-4.201577618E0,4.428530491E0
2.465887250E0,-7.083565548E-1,1.129207270E0,-2.679649710E0,2.992891685E0
2.475817250E0,-5.658292115E-2,4.630772603E-1,-8.012498081E-1,9.271695804E-1
2.485747250E0,8.534093106E-1,6.936277109E-1,1.019012983E0,1.499271260E0
2.495677250E0,1.219858409E0,1.490894980E0,1.487701231E0,2.433942755E0
2.505607250E0,1.841929649E0,2.287643017E0,-4.524166167E-2,2.937356330E0
2.515537250E0,7.268752715E-1,2.647223391E0,-2.208593339E0,3.523354067E0
2.525466250E0,-2.296377003E-1,2.515590287E0,-3.474742985E0,4.295901160E0
2.535396250E0,-5.014998990E-1,1.958067631E0,-3.723953655E0,4.237140760E0
2.545326250E0,-2.155868411E-1,1.292662091E0,-3.250799888E0,3.505018242E0
2.555256250E0,3.344195125E-1,7.509655076E-1,-2.507892428E0,2.639187381E0
2.565186250E0,6.161038640E-1,2.700980937E-1,-1.481695556E0,1.627254950E0
2.575116250E0,7.705735606E-1,-2.281267798E-1,-1.180044132E-1,8.122502579E-1
2.585046250E0,8.611849380E-1,-7.049432427E-1,1.285932530E0,1.700648978E0
2.594975250E0,1.016628488E0,-9.328718019E-1,2.149845779E0,2.554529341E0
2.604905250E0,1.295590376E0,-8.637898725E-1,2.143731346E0,2.649579485E0
2.614835250E0,1.380466220E0,-6.298842895E-1,1.616233556E0,2.216901466E0
2.624765250E0,1.353874837E0,-3.189930958E-1,6.861824512E-1,1.550993239E0
2.634695250E0,1.445977255E0,1.187622124E-1,-3.614573300E-1,1.495194330E0
2.644625250E0,1.631445088E0,4.864462423E-1,-1.225198086E0,2.097463557E0
2.654554250E0,1.937116764E0,5.802420133E-1,-1.941583160E0,2.803363573E0
2.664484250E0,2.205345503E0,5.411288184E-1,-2.574814396E0,3.433080011E0
2.674414250E0,2.039490693E0,4.308988631E-1,-2.913548861E0,3.582452105E0
2.684344250E0,1.714564428E0,4.627492315E-1,-3.010613810E0,3.495377454E0
2.694274250E0,1.468312449E0,4.743050838E-1,-3.181931967E0,3.536325466E0
2.704204250E0,1.095802127E0,3.806701112E-1,-3.186289312E0,3.390889502E0
2.714133250E0,4.925317320E-1,2.787051952E-1,-2.860671905E0,2.916111768E0
2.724063250E0,-2.433084905E-2,1.456599891E-1,-1.852659289E0,1.858535785E0
2.733993250E0,-2.548152262E-1,4.734782875E-2,-1.539766009E0,1.561426264E0
2.743923250E0,-2.303323495E-1,-7.779135704E-2,-1.670159503E0,1.687761017E0
2.753853250E0,2.945923725E-1,-2.114095902E-1,-1.107963166E0,1.165787742E0
2.763783250E0,7.354437813E-1,-3.454833215E-1,-8.273120177E-1,1.159604008E0
2.773712250E0,6.866376570E-1,-3.343613327E-1,-1.090675288E0,1.331480889E0
2.783642250E0,3.971668607E-1,-1.271418571E-1,-1.418569601E0,1.478596050E0
2.793572250E0,3.072828770E-2,1.284720987E-1,-1.498682887E0,1.504493172E0
2.803502250E0,-3.581589156E-1,2.168065703E-1,-1.198034846E0,1.269082499E0
2.813432250E0,-9.465700740E-1,1.382977599E-1,-3.486805791E-1,1.018184326E0
2.823362250E0,-1.653318206E0,2.868293166E-2,1.011497557E0,1.938404268E0
2.833291250E0,-2.130001498E0,-1.495945805E-1,2.427339431E0,3.232841109E0
2.843221250E0,-2.393450139E0,-2.546801555E-1,3.181075934E0,3.989073783E0
2.853151250E0,-2.484222899E0,-3.656392586E-1,3.405037158E0,4.230760395E0
2.863081250E0,-2.709603826E0,-4.981845278E-1,3.338977069E0,4.328846104E0
2.873011250E0,-2.696722703E0,-5.918002045E-1,2.985877165E0,4.066694390E0
2.882941250E0,-2.263241709E0,-6.683917129E-1,2.328503360E0,3.315258423E0
2.892870250E0,-6.564828350E-1,-6.199030924E-1,9.527897573E-1,1.312652992E0
2.902800250E0,1.323553954E0,1.901075989E-1,-5.340782458E-1,1.439852611E0
2.912730250E0,-3.713680682E-1,7.647058797E-1,7.063038898E-1,1.105239571E0
2.922660250E0,-1.405711573E-1,1.186312932E0,8.043213505E-1,1.440149804E0
2.932590250E0,-3.019110399E-1,1.208524750E0,3.493009686E-1,1.293713073E0
2.942520250E0,-9.488797241E-1,1.015828589E0,3.627279299E-1,1.436611292E0
2.952450250E0,-1.551037248E0,6.768017632E-1,6.530684996E-1,1.813911695E0
2.962379250E0,-1.674564503E0,3.985333550E-1,4.205153775E-1,1.771956063E0
2.972309250E0,-1.403948053E0,2.502842188E-1,-9.569553137E-3,1.426114968E0
2.982239250E0,-1.267839345E0,9.847822130E-2,-4.980582279E-1,1.365714671E0
2.992169250E0,-1.439612706E0,4.003003836E-3,-5.939899868E-1,1.557345457E0
3.002099250E0,-1.314889696E0,1.261829138E-2,-4.077544141E-1,1.376719941E0
3.012029250E0,-8.497986549E-1,7.459994674E-2,-9.432962179E-2,8.582662661E-1
3.021958250E0,-2.098343503E-1,6.328675389E-2,3.898701203E-1,4.472520302E-1
3.031888250E0,4.681258924E-1,-1.441093075E-1,8.290907407E-1,9.629645892E-1
3.041818250E0,1.000702573E0,-4.298305768E-1,9.191016090E-1,1.425099201E0
3.051748250E0,1.178883753E0,-7.090520811E-1,7.154846030E-1,1.550625671E0
3.061678250E0,1.084978639E0,-8.160146123E-1,4.497409308E-1,1.430148733E0
3.071608250E0,9.090515609E-1,-5.968837738E-1,-2.670774221E-2,1.087822726E0
3.081537250E0,8.355263324E-1,-2.330758631E-1,-7.534885812E-1,1.148988099E0
3.091467250E0,6.703480451E-1,-8.610025048E-3,-1.343543977E0,1.501516251E0
3.101397250E0,2.320679493E-1,-2.971204162E-2,-1.594751471E0,1.611822134E0
3.111327250E0,-2.044401477E-1,-2.409894848E-1,-1.593327089E0,1.624365389E0
3.121257250E0,-2.221792844E-1,-4.668071991E-1,-1.473223525E0,1.561300788E0
3.131187250E0,-4.844520494E-2,-5.563269013E-1,-1.299461233E0,1.414371258E0
3.141116250E0,1.401495731E-1,-5.626799011E-1,-1.473003085E0,1.583031479E0
3.151046250E0,4.053503314E-1,-6.764632094E-1,-1.944085768E0,2.097946815E0
3.160976250E0,8.001771364E-1,-9.111757082E-1,-2.050041994E0,2.381847350E0
3.170906250E0,9.355189826E-1,-1.239423777E0,-2.105212228E0,2.615967429E0
3.180836250E0,1.011940337E0,-1.287492567E0,-2.318061987E0,2.838145827E0
3.190766250E0,1.137624191E0,-1.244828943E0,-2.580257569E0,3.082453085E0
3.200696250E0,1.156989584E0,-1.335178365E0,-2.730118783E0,3.251903248E0
3.210625250E0,1.132715161E0,-1.210387673E0,-2.685579371E0,3.156013073E0
3.220555250E0,1.136553566E0,-8.638781655E-1,-2.300467715E0,2.707432585E0
3.230485250E0,1.341119867E0,-4.970010513E-1,-1.909249227E0,2.385549235E0
3.240415250E0,1.437616759E0,-4.522072864E-1,-1.617127011E0,2.210505179E0
3.250345250E0,1.652042928E0,-8.108064973E-1,-1.484357209E0,2.364311599E0
3.260275250E0,1.713297482E0,-1.334432845E0,-1.472899590E0,2.624029817E0
3.270204250E0,1.624419804E0,-1.286476321E0,-1.778292062E0,2.730583030E0
3.280134250E0,1.606672774E0,-9.925900000E-1,-1.608067335E0,2.480425944E0
3.290064250E0,1.703121281E0,-9.609922314E-1,-1.532161120E0,2.484279747E0
3.299994250E0,1.475377055E0,-6.946489272E-1,-1.095945384E0,1.964782652E0
3.309924250E0,7.550553426E-1,-3.529964089E-1,3.003656209E-1,8.859653161E-1
3.319854250E0,5.596948975E-1,6.112427813E-1,1.065308313E0,1.349725127E0
3.329783250E0,9.844739185E-1,2.149450800E0,3.715578103E0,4.403958251E0
3.339713250E0,-1.015032783E-1,3.880860763E0,4.472314228E0,5.922244315E0
3.349643250E0,-8.766850296E-1,3.838741222E0,3.779352515E0,5.457839888E0
3.359573250E0,1.358516649E0,1.014562667E0,3.326858715E0,3.734018452E0
3.369503250E0,5.870678775E0,-3.216472639E0,7.935227126E-1,6.740937903E0
3.379433250E0,7.661606669E0,-4.872265533E0,-5.934982359E-1,9.098979522E0
3.389362250E0,5.644488593E0,-3.254597362E0,-7.451533753E-1,6.558041553E0
3.399292250E0,3.044541695E0,-1.558241164E0,-1.787359339E-1,3.424806007E0
3.409222250E0,1.182350640E0,-1.659220532E-1,7.253570420E-1,1.397006085E0
3.419152250E0,-3.135281418E-1,4.308570555E-1,2.908800337E0,2.957204271E0
3.429082250E0,-2.795985767E-1,-8.600640267E-2,4.516053155E0,4.525517491E0
3.439012250E0,1.166538380E0,3.626671189E-1,3.794289227E0,3.986097085E0
3.448943042E0,2.215177743E0,4.055798346E-1,3.178540581E0,3.895462445E0
3.458872042E0,2.321583473E0,-2.012001178E0,3.161497702E0,4.408283825E0
3.468802042E0,1.421338696E0,-3.558305544E0,1.409684756E0,4.082762930E0
3.478732042E0,-4.186217860E0,-1.885106074E0,-2.594925894E0,5.273678533E0
3.488662042E0,-6.857858931E0,-1.267734826E0,-2.605069644E0,7.444714135E0
3.498592042E0,1.157758639E0,-5.157619012E0,-3.260241387E0,6.210524361E0
3.508522042E0,2.612458478E0,-5.756436460E0,-4.320808777E0,7.657080939E0
3.518451042E0,2.224271479E0,-3.306711256E0,-4.957647160E0,6.360816638E0
3.528381042E0,3.727810771E0,-1.274308850E0,-7.475615510E0,8.450163516E0
3.538311042E0,4.118193984E0,-5.065901926E-1,-9.538901448E0,1.040224957E1
3.548241042E0,2.412052178E0,-7.728835031E-1,-1.183716418E1,1.210511464E1
3.558171042E0,2.164664962E0,-1.712626660E0,-1.330382830E1,1.358715245E1
3.568101042E0,1.388366685E0,-2.588521731E0,-1.378037169E1,1.408994857E1
3.578030042E0,-1.222434692E0,-4.690255450E0,-1.432322486E1,1.512109828E1
3.587960042E0,-1.579562159E0,-7.673113405E0,-1.264035643E1,1.487112291E1
3.597890042E0,-2.486890984E-1,-5.424018742E0,-8.296975062E0,9.915725932E0
3.607820042E0,-2.222023809E-1,-2.872535321E0,-8.346674641E0,8.829938315E0
3.617750042E0,-1.755335893E0,-4.811232880E0,-8.754493375E0,1.014250069E1
3.627680042E0,-2.572030244E0,-6.343348392E0,-9.138718008E0,1.141794970E1
3.637609042E0,-4.282514192E0,-6.189352612E0,-1.033924552E1,1.278858911E1
3.647539042E0,-5.966049201E0,-6.899641380E0,-1.112625268E1,1.438722673E1
3.657469042E0,-6.967301266E0,-8.321924547E0,-1.096532795E1,1.542841963E1
3.667399042E0,-7.989916134E0,-9.201332917E0,-9.606254940E0,1.551719760E1
3.677329042E0,-7.855374625E0,-8.814986329E0,-7.539091714E0,1.400888284E1
3.687259042E0,-6.287478831E0,-7.582800236E0,-5.298861430E0,1.118522159E1
3.697189042E0,-4.136649551E0,-6.623276240E0,-4.032561511E0,8.788697856E0
3.707118042E0,-1.712090471E0,-6.266780273E0,-5.269714229E0,8.365027007E0
3.717048042E0,4.876688951E-1,-4.497816859E0,-2.509318272E0,5.173476166E0
3.726978042E0,2.992987379E0,-3.542399948E0,7.158158478E-1,4.692436805E0
3.736908042E0,4.855563546E0,-3.946829927E0,1.716295204E0,6.488423002E0
3.746838042E0,6.722007061E0,-4.634392321E0,-1.203713661E-1,8.165626760E0
3.756768042E0,9.657460762E0,-6.234270923E0,1.142415984E0,1.155152789E1
3.766697042E0,1.091243053E1,-7.652402567E0,3.772470927E0,1.385178480E1
3.776627042E0,1.278660933E1,-8.658882043E0,7.086047691E0,1.699075302E1
3.786557042E0,1.588842976E1,-8.607349362E0,1.159024445E1,2.146770667E1
3.796487042E0,2.013167815E1,-7.237183013E0,1.591420312E1,2.666314205E1
3.806417042E0,2.519924244E1,-5.970417656E0,1.797809132E1,3.152553685E1
3.816347042E0,2.819283910E1,-6.016689597E0,1.734746093E1,3.364477865E1
3.826276042E0,2.778168394E1,-5.710622356E0,1.490305347E1,3.203957199E1
3.836206042E0,2.575600262E1,-5.806589198E0,1.199728550E1,2.900039669E1
3.846136042E0,2.327261762E1,-6.767504246E0,1.023460726E1,2.630895343E1
3.856066042E0,2.051943742E1,-7.275697453E0,9.587186585E0,2.378859458E1
3.865996042E0,1.837322043E1,-6.987903346E0,9.430409285E0,2.180226230E1
3.875926042E0,1.675883576E1,-5.777646065E0,9.484096080E0,2.010442361E1
3.885855042E0,1.528428842E1,-4.368293431E0,9.299611164E0,1.841668341E1
3.895785042E0,1.378916474E1,-3.078132779E0,8.510816510E0,1.649393717E1
3.905715042E0,1.213927344E1,-1.886753234E0,7.235368037E0,1.425736119E1
3.915645042E0,9.888287201E0,-6.798306209E-1,5.844048800E0,1.150622874E1
3.925575042E0,7.231031742E0,5.199794394E-1,4.520706954E0,8.543710554E0
3.935505042E0,4.335769463E0,1.650293003E0,3.370453801E0,5.734311001E0
3.945434042E0,1.432346225E0,2.841749731E0,2.350450884E0,3.956232627E0
3.955364042E0,-1.526429095E0,3.932121549E0,1.626080852E0,4.520586753E0
3.965294042E0,-4.620837014E0,5.076063218E0,1.075982917E0,6.948114257E0
3.975224042E0,-7.308087519E0,6.168617216E0,4.186295408E-1,9.572629328E0
3.985154042E0,-9.435684058E0,7.015823801E0,-3.145785210E-1,1.176234997E1
3.995084042E0,-1.115263298E1,7.552297651E0,-1.183399923E0,1.352105238E1
4.005014042E0,-1.200415832E1,7.650677639E0,-2.217702717E0,1.440662662E1
4.014943042E0,-1.191067070E1,7.188005590E0,-3.158403355E0,1.426558840E1
4.024873042E0,-1.132025862E1,6.351394161E0,-3.815906968E0,1.352958274E1
4.034803042E0,-1.078725685E1,5.665163763E0,-4.152287929E0,1.287247007E1
4.044733042E0,-1.056413411E1,5.468088037E0,-4.087563345E0,1.257811951E1
4.054663042E0,-1.055303844E1,5.519640598E0,-3.652086697E0,1.245675679E1
4.064593042E0,-1.024393357E1,5.730997564E0,-2.981064321E0,1.211070818E1
4.074522042E0,-9.623718819E0,6.008516943E0,-2.317571406E0,1.157969676E1
4.084452042E0,-8.984373150E0,6.282537934E0,-1.739519759E0,1.110023301E1
4.094382042E0,-8.269650439E0,6.582156866E0,-1.185711254E0,1.063568609E1
4.104312042E0,-7.508843483E0,6.901075117E0,-6.690395844E-1,1.022033180E1
4.114242042E0,-6.612036138E0,7.238177624E0,-3.137861502E-1,9.808603313E0
4.124172042E0,-5.446980758E0,7.494719533E0,-2.649958134E-3,9.265010916E0
4.134101042E0,-4.552964289E0,7.585281794E0,2.304060245E-1,8.849806249E0
4.144031042E0,-4.049885641E0,7.455357832E0,4.271134122E-1,8.495078574E0
4.153961042E0,-3.744011359E0,7.146696181E0,6.099873841E-1,8.091042700E0
4.163891042E0,-3.301741415E0,6.561102796E0,6.067199600E-1,7.370052604E0
4.173821042E0,-2.425592868E0,5.550110439E0,4.808820685E-1,6.076057456E0
4.183751042E0,-1.244647095E0,4.128941751E0,5.283801707E-1,4.344708503E0
4.193681042E0,1.084646809E-1,2.464673318E0,8.654592526E-1,2.614459575E0
4.203610042E0,1.444787346E0,3.108923632E-1,7.479466633E-1,1.656348015E0
4.213540042E0,3.651532381E0,-2.361386347E0,1.552003062E-1,4.351312600E0
4.223470042E0,7.069565560E0,-5.535481290E0,-4.692718005E-1,8.991135987E0
4.233400042E0,1.134527418E1,-8.455116518E0,-8.461611751E-1,1.417463334E1
4.243330042E0,1.518781872E1,-9.629449675E0,-5.618308854E-1,1.799199246E1
4.253260042E0,1.864159710E1,-1.046397365E1,1.651546792E-1,2.137828719E1
4.263189042E0,2.132022998E1,-1.213349171E1,5.998412955E-1,2.453841146E1
4.273119042E0,2.176093696E1,-1.273195540E1,6.444954582E-1,2.522015940E1
4.283049042E0,1.990397354E1,-1.226616036E1,4.894037640E-1,2.338517412E1
4.292979042E0,1.609190819E1,-1.151966972E1,4.321267053E-1,1.979492443E1
4.302909042E0,1.222372594E1,-1.112391964E1,4.046283464E-1,1.653253726E1
4.312839042E0,9.043239993E0,-1.073001728E1,1.091371473E-1,1.403301006E1
4.322768042E0,6.652860813E0,-9.857610369E0,-3.446224652E-2,1.189261228E1
4.332698042E0,4.845184738E0,-8.380489089E0,-2.920286425E-1,9.684714413E0
4.342628042E0,4.018373242E0,-6.542191147E0,-1.123592774E0,7.759513466E0
4.352558042E0,3.635436165E0,-4.870400563E0,-1.938584708E0,6.379287455E0
4.362488042E0,2.763525095E0,-3.714675001E0,-2.752739906E0,5.386414234E0
4.372418042E0,1.229920297E0,-2.693310560E0,-3.760387655E0,4.786140515E0
4.382348042E0,-4.226887876E-1,-1.765264758E0,-4.549408012E0,4.898156667E0
4.392277042E0,-2.225195339E0,-7.694772077E-1,-4.976880407E0,5.505717760E0
4.402207042E0,-3.942551812E0,2.217003974E-1,-5.137177731E0,6.479464553E0
4.412137042E0,-5.491607292E0,9.844959918E-1,-4.974586544E0,7.474857477E0
4.422067042E0,-7.099122065E0,1.701069346E0,-4.133368678E0,8.389034965E0
4.431997042E0,-8.537067000E0,2.631026019E0,-2.396723410E0,9.249221263E0
4.441927042E0,-9.585097960E0,3.987230387E0,-1.696125233E0,1.051898046E1
4.451854750E0,-1.040150667E1,5.395594257E0,-1.297201284E0,1.178925399E1
4.461784750E0,-1.085681766E1,6.596783091E0,-5.091895723E-1,1.271405958E1
4.471714750E0,-1.072504130E1,7.337676769E0,-5.009077588E-2,1.299501906E1
4.481644750E0,-1.007442746E1,7.611815289E0,4.582814653E-2,1.262679377E1
4.491574750E0,-9.311407921E0,7.475544759E0,1.208268642E-1,1.194155292E1
4.501504750E0,-8.664562029E0,7.243971630E0,2.895009094E-1,1.129750286E1
4.511433750E0,-8.218147579E0,7.001739028E0,3.957553428E-1,1.080365315E1
4.521363750E0,-7.991788997E0,6.903892890E0,5.778510869E-1,1.057668853E1
4.531293750E0,-7.919347258E0,6.831009101E0,7.033428597E-1,1.048205312E1
4.541223750E0,-7.863225097E0,6.624102452E0,8.395461470E-1,1.031571035E1
4.551153750E0,-7.913519922E0,6.301326792E0,9.453901058E-1,1.015993501E1
4.561083750E0,-8.171568659E0,6.056927796E0,1.159349667E0,1.023743133E1
4.571012750E0,-8.504572268E0,5.990121603E0,1.331226817E0,1.048720511E1
4.580942750E0,-8.497598879E0,6.151059197E0,1.392282858E0,1.058220995E1
4.590872750E0,-7.955804647E0,6.397572547E0,1.510206580E0,1.032010106E1
4.600802750E0,-7.322518448E0,6.562020224E0,1.618104081E0,9.964820453E0
4.610732750E0,-6.753978467E0,6.517187283E0,1.514269810E0,9.506995754E0
4.620662750E0,-6.077108876E0,6.384592313E0,1.313718499E0,8.911797102E0
4.630592750E0,-5.138080541E0,6.173014323E0,1.196079537E0,8.120134465E0
4.640521750E0,-3.548657053E0,5.658227211E0,1.026147755E0,6.757327968E0
4.650451750E0,-1.440884914E0,4.193006185E0,7.895565462E-1,4.503426445E0
4.660381750E0,2.159511226E-1,1.786214454E0,7.896208656E-1,1.964865918E0
4.670311750E0,2.286754825E0,-1.296243510E0,4.224660087E-1,2.662324623E0
4.680241750E0,5.736445999E0,-5.442529857E0,-2.477812450E-2,7.907500104E0
4.690171750E0,9.095541583E0,-9.300937897E0,1.131530150E-1,1.300957824E1
4.700100750E0,1.074603164E1,-1.003396239E1,5.217108730E-1,1.471155259E1
4.710030750E0,1.233522767E1,-8.683601732E0,7.334607712E-1,1.510300451E1
4.719960750E0,1.532993413E1,-8.718316067E0,8.154621235E-1,1.765448651E1
4.729890750E0,1.828497425E1,-9.957950928E0,8.495736102E-1,2.083801443E1
4.739820750E0,1.997492365E1,-1.011284601E1,4.169276722E-1,2.239287963E1
4.749750750E0,2.040471739E1,-8.811066356E0,-8.975476027E-3,2.222582873E1
4.759680750E0,2.026814281E1,-7.581481689E0,4.364455318E-1,2.164409763E1
4.769609750E0,1.959098144E1,-7.758570462E0,1.150059538E0,2.110271561E1
4.779539750E0,1.760271294E1,-9.507897756E0,1.250131198E0,2.004540971E1
4.789469750E0,1.423183054E1,-1.164926741E1,1.268904269E0,1.843530715E1
4.799399750E0,9.796776522E0,-1.249472568E1,1.390484254E0,1.593826987E1
4.809329750E0,5.324714309E0,-1.180006009E1,1.361269226E0,1.301718304E1
4.819259750E0,1.797335858E0,-1.028231235E1,1.147737097E0,1.050112679E1
4.829188750E0,-7.470238996E-1,-8.538594877E0,9.034953904E-1,8.618697761E0
4.839118750E0,-2.537743049E0,-6.691246614E0,6.953041077E-1,7.190018695E0
4.849048750E0,-4.112785310E0,-4.513587969E0,5.319083440E-1,6.129470274E0
4.858978750E0,-5.685043711E0,-2.136448931E0,5.894870460E-1,6.101772776E0
4.868908750E0,-6.963404682E0,3.483537197E-1,9.151255023E-1,7.031913663E0
4.878838750E0,-7.563745914E0,2.571555450E0,1.131273676E0,8.068638659E0
4.888767750E0,-7.827509719E0,4.100767235E0,8.912314403E-1,8.881469124E0
4.898697750E0,-8.158705954E0,4.880629682E0,2.507198364E-1,9.510409527E0
4.908627750E0,-8.679787009E0,4.887698381E0,-7.486617047E-1,9.989434035E0
4.918557750E0,-9.189887577E0,4.115183253E0,-1.956601149E0,1.025753649E1
4.928487750E0,-9.589734217E0,2.822499820E0,-3.156307713E0,1.048292831E1
4.938417750E0,-1.011218878E1,1.631811123E0,-4.051761428E0,1.101525942E1
4.948347750E0,-1.081765301E1,1.105837996E0,-4.445057432E0,1.174746909E1
4.958276750E0,-1.157331910E1,1.412908326E0,-4.369206766E0,1.245102376E1
4.968206750E0,-1.189360150E1,2.217854744E0,-4.096511924E0,1.277333341E1
4.978136750E0,-1.184321488E1,3.077430528E0,-3.731762611E0,1.279290309E1
4.988066750E0,-1.157658418E1,3.756677012E0,-3.391393849E0,1.263453504E1
4.997996750E0,-1.092880390E1,4.177644672E0,-3.138443300E0,1.211368219E1
5.007926750E0,-1.004258353E1,4.306710263E0,-2.854904796E0,1.129387970E1
5.017855750E0,-9.102545963E0,4.286956907E0,-2.531708137E0,1.037515728E1
5.027785750E0,-7.993055504E0,4.206666158E0,-2.286272430E0,9.317296715E0
5.037715750E0,-7.079065531E0,4.207435066E0,-2.039640382E0,8.483855934E0
5.047645750E0,-6.656173260E0,4.342993113E0,-1.672887813E0,8.121870800E0
5.057575750E0,-6.424494882E0,4.515688874E0,-1.235199164E0,7.949295407E0
5.067505750E0,-6.036357291E0,4.541083916E0,-9.456906527E-1,7.612711954E0
5.077434750E0,-5.760406135E0,4.108166594E0,-1.095512690E0,7.159571192E0
5.087364750E0,-5.144411906E0,3.090823576E0,-1.250674989E0,6.130444695E0
5.097294750E0,-3.543916715E0,1.562326613E0,-1.211992734E0,4.058218392E0
5.107224750E0,-1.259196721E0,-2.654182747E-1,-1.246838046E0,1.791822636E0
5.117154750E0,1.961701675E0,-2.584093342E0,-1.515984213E0,3.581064088E0
5.127084750E0,5.349186076E0,-5.215360267E0,-1.760700713E0,7.675535251E0
5.137014750E0,8.872651570E0,-7.191803357E0,-1.930354167E0,1.158327452E1
5.146943750E0,1.270711058E1,-8.792504370E0,-1.676359305E0,1.554313266E1
5.156873750E0,1.662753068E1,-1.035630770E1,-8.305363186E-1,1.960657227E1
5.166803750E0,1.995370294E1,-1.184339497E1,2.783612327E-1,2.320546811E1
5.176733750E0,2.154772877E1,-1.178720557E1,1.057880449E0,2.458377394E1
5.186663750E0,2.083598931E1,-1.083630680E1,9.877373958E-1,2.350616133E1
5.196593750E0,1.824283570E1,-9.967231629E0,8.058748095E-1,2.080375435E1
5.206522750E0,1.451955916E1,-8.979709411E0,4.648877044E-1,1.707831665E1
5.216452750E0,1.061836821E1,-8.053611608E0,2.688980989E-1,1.332976780E1
5.226382750E0,7.454515248E0,-7.284028566E0,4.963115915E-1,1.043423188E1
5.236312750E0,5.024572636E0,-6.553912475E0,6.803597939E-1,8.286313315E0
5.246242750E0,3.163218538E0,-5.477923638E0,4.642852950E-1,6.342646115E0
5.256172750E0,1.849883031E0,-4.096889654E0,-1.693447208E-1,4.498360779E0
5.266102750E0,8.827518082E-1,-2.418068086E0,-1.205283639E0,2.842360405E0
5.276031750E0,1.007346618E-1,-8.602406126E-1,-2.374659526E0,2.527680607E0
5.285961750E0,-7.220019096E-1,6.824314624E-1,-3.474909630E0,3.614138403E0
5.295891750E0,-1.535137353E0,2.244050855E0,-4.215067145E0,5.015894932E0
5.305821750E0,-2.375213258E0,3.757920423E0,-4.449362152E0,6.289708060E0
5.315751750E0,-3.226014125E0,5.202533230E0,-4.323455812E0,7.494383850E0
5.325681750E0,-4.351187401E0,6.626720250E0,-3.779398123E0,8.782374579E0
5.335610750E0,-5.665815727E0,8.054248955E0,-3.253745130E0,1.037107764E1
5.345540750E0,-6.917001178E0,9.320802643E0,-2.700404402E0,1.191698163E1
5.355470750E0,-7.683044316E0,1.000647697E1,-2.370698622E0,1.283662585E1
5.365400750E0,-8.014818256E0,9.806460096E0,-2.120440278E0,1.284134877E1
5.375330750E0,-8.206165465E0,9.012160288E0,-2.034411802E0,1.235714433E1
5.385260750E0,-8.318149585E0,8.240737127E0,-2.037648820E0,1.188500625E1
5.395189750E0,-8.320735223E0,7.835836739E0,-1.640131127E0,1.154664463E1
5.405119750E0,-8.265480790E0,7.729681123E0,-1.032136547E0,1.136360193E1
5.415049750E0,-8.250642310E0,7.771911469E0,-4.238266923E-1,1.134263353E1
5.424979750E0,-7.986636431E0,7.728178974E0,1.145720611E-1,1.111414587E1
5.434909750E0,-7.483232678E0,7.545485644E0,6.821519655E-1,1.064887112E1
5.444839750E0,-6.959809229E0,7.311937326E0,1.142363505E0,1.015915185E1
5.454770167E0,-6.511740602E0,6.987238517E0,1.477676765E0,9.664770891E0
5.464699167E0,-6.149313803E0,6.773381867E0,1.770457962E0,9.318115881E0
5.474629167E0,-5.676588053E0,6.739727048E0,1.893259431E0,9.012879888E0
5.484559167E0,-5.214636381E0,6.695247864E0,1.945708956E0,8.706581412E0
5.494489167E0,-4.801377398E0,6.551111074E0,2.033751651E0,8.372958080E0
5.504419167E0,-4.265341505E0,6.326801941E0,2.037318453E0,7.897608970E0
5.514349167E0,-3.464521467E0,5.861544839E0,1.824250592E0,7.049007527E0
5.524278167E0,-2.307482035E0,4.941160936E0,1.490189806E0,5.653336218E0
5.534208167E0,-7.681188995E-1,3.653553178E0,1.292383178E0,3.950786219E0
5.544138167E0,1.274802355E0,1.852773310E0,1.175250585E0,2.537538950E0
5.554068167E0,3.773432209E0,-8.902915004E-1,1.063690388E0,4.020304321E0
5.563998167E0,6.605411827E0,-4.394741849E0,8.060013286E-1,7.974638516E0
5.573928167E0,9.543505545E0,-7.429893792E0,6.491555429E-1,1.211211058E1
5.583858167E0,1.216809203E1,-8.893072386E0,6.122959379E-1,1.508390222E1
5.593787167E0,1.409777025E1,-9.188080203E0,6.976922567E-1,1.684205209E1
5.603717167E0,1.613213119E1,-9.966335835E0,6.325482079E-1,1.897297087E1
5.613647167E0,1.795412475E1,-1.097171311E1,4.681735472E-1,2.104633628E1
5.623577167E0,1.929421419E1,-1.143510378E1,1.418394184E-1,2.242874090E1
5.633507167E0,1.972151234E1,-1.151724196E1,1.373978734E-2,2.283823768E1
5.643437167E0,1.877832020E1,-1.113041239E1,3.133169843E-1,2.183138926E1
5.653366167E0,1.693310851E1,-1.126493227E1,1.024546788E0,2.036365780E1
5.663296167E0,1.405745136E1,-1.188893075E1,1.376894156E0,1.846224392E1
5.673226167E0,1.054441613E1,-1.262694993E1,1.305390894E0,1.650238230E1
5.683156167E0,6.715027240E0,-1.247953227E1,1.219456705E0,1.422383181E1
5.693086167E0,3.076556954E0,-1.120442060E1,9.143793976E-1,1.165505613E1
5.703016167E0,4.083344579E-2,-9.497875044E0,4.396258324E-1,9.508131709E0
5.712946167E0,-2.468399749E0,-7.705980020E0,4.269033875E-3,8.091671249E0
5.722875167E0,-4.548466026E0,-5.749021021E0,-5.247185711E-1,7.349497634E0
5.732805167E0,-6.025427676E0,-3.710641591E0,-1.025646722E0,7.150286071E0
5.742735167E0,-6.823630500E0,-2.055173803E0,-1.332864622E0,7.249979356E0
5.752665167E0,-7.215328460E0,-8.553652042E-1,-1.562308779E0,7.431919210E0
5.762595167E0,-7.479125009E0,9.255557656E-3,-1.897899781E0,7.716179116E0
5.772525167E0,-7.901763511E0,6.369635135E-1,-2.418679851E0,8.288160310E0
5.782454167E0,-8.727724822E0,1.017129887E0,-2.883521070E0,9.247833667E0
5.792384167E0,-9.941326125E0,1.116567052E0,-3.431707478E0,1.057607221E1
5.802314167E0,-1.120373297E1,7.683478180E-1,-4.410909693E0,1.206524410E1
5.812244167E0,-1.226121712E1,9.959270060E-4,-5.542614893E0,1.345578040E1
5.822174167E0,-1.330229399E1,-6.141381763E-1,-6.184817512E0,1.468264822E1
5.832104167E0,-1.383943793E1,-5.425412133E-1,-6.419999542E0,1.526567350E1
5.842034167E0,-1.385263392E1,-2.540267292E-1,-6.080535344E0,1.513052895E1
5.851963167E0,-1.349648937E1,8.124706149E-4,-5.360088794E0,1.452190683E1
5.861893167E0,-1.300566825E1,1.739415094E-1,-4.518045301E0,1.376918282E1
5.871823167E0,-1.233356472E1,1.254178056E-1,-3.653056165E0,1.286380067E1
5.881753167E0,-1.143097448E1,6.448660254E-2,-2.791926776E0,1.176716581E1
5.891683167E0,-1.048064757E1,1.443215615E-1,-2.139285123E0,1.069772607E1
5.901613167E0,-9.776725835E0,3.812861153E-1,-1.984965992E0,9.983478208E0
5.911542167E0,-9.258563125E0,7.461327839E-1,-2.280333413E0,9.564393642E0
5.921472167E0,-8.734634476E0,1.104207500E0,-2.719472757E0,9.214588744E0
5.931402167E0,-8.170769345E0,1.589074409E0,-3.093032654E0,8.879948207E0
5.941332167E0,-7.748350698E0,2.185409129E0,-3.368981472E0,8.727140870E0
5.951262167E0,-7.256387023E0,2.640123409E0,-3.486296498E0,8.472288211E0
5.961192167E0,-6.373042307E0,2.797193363E0,-3.552082937E0,7.813914010E0
5.971122167E0,-4.906504489E0,2.357244472E0,-3.568700724E0,6.508917932E0
5.981051167E0,-2.984061019E0,1.330133095E0,-3.385277077E0,4.704675877E0
5.990981167E0,-7.554889137E-1,-8.523749381E-2,-3.131354721E0,3.222330106E0
6.000911167E0,1.948201624E0,-2.012476265E0,-2.898235588E0,4.030548326E0
6.010841167E0,4.809438370E0,-4.458836103E0,-2.462497569E0,7.005412986E0
6.020771167E0,7.766083549E0,-6.708559635E0,-1.908726486E0,1.043839369E1
6.030701167E0,1.080956047E1,-8.141943741E0,-9.980003556E-1,1.356959285E1
6.040631167E0,1.385403609E1,-9.086646799E0,2.049530947E-1,1.656935339E1
6.050560167E0,1.712798452E1,-1.028862384E1,1.403087489E0,2.002978504E1
6.060490167E0,2.017851902E1,-1.181178960E1,2.508967731E0,2.351565271E1
6.070420167E0,2.232902437E1,-1.321379521E1,3.069881773E0,2.612688055E1
6.080350167E0,2.221633683E1,-1.349036383E1,2.928775595E0,2.615594129E1
6.090280167E0,2.036811850E1,-1.255057360E1,2.899327848E0,2.409944503E1
6.100210167E0,1.844751164E1,-1.143265029E1,3.329833778E0,2.195686616E1
6.110139167E0,1.616534805E1,-1.055292266E1,3.866109992E0,1.968830772E1
6.120069167E0,1.335918272E1,-9.435862398E0,4.187561257E0,1.688309602E1
6.129999167E0,1.041304206E1,-7.872049130E0,4.117588212E0,1.368777320E1
6.139929167E0,7.541987255E0,-5.902931432E0,3.904818560E0,1.034281293E1
6.149859167E0,4.963897834E0,-3.650257980E0,3.520389858E0,7.096323681E0
6.159789167E0,2.811122015E0,-1.472521859E0,2.893290013E0,4.294398061E0
6.169719167E0,7.886999291E-1,7.544589266E-1,2.220074347E0,2.473860537E0
6.179648167E0,-1.144071477E0,2.965444070E0,1.651546061E0,3.581949534E0
6.189578167E0,-3.109614188E0,5.151609828E0,1.248491639E0,6.145528097E0
6.199508167E0,-4.865816638E0,7.204954914E0,8.778271370E-1,8.738313760E0
6.209438167E0,-6.299689572E0,8.812812919E0,6.601611722E-1,1.085299834E1
6.219368167E0,-7.213360872E0,9.756780982E0,4.688906351E-1,1.214278422E1
6.229298167E0,-7.816823348E0,9.878020660E0,2.979706013E-1,1.260027007E1
6.239227167E0,-8.062977678E0,9.202728063E0,2.462110484E-1,1.223774623E1
6.249157167E0,-7.954058084E0,7.770691155E0,4.370570775E-1,1.112841857E1
6.259087167E0,-7.541227702E0,5.945767549E0,5.558363199E-1,9.619314997E0
6.269017167E0,-7.704526402E0,4.589240415E0,5.794216490E-1,8.986466720E0
6.278947167E0,-8.213631774E0,4.094617718E0,4.608143513E-1,9.189232343E0
6.288877167E0,-8.767007001E0,3.974111574E0,5.852571702E-1,9.643469319E0
6.298807167E0,-9.226235039E0,4.145157834E0,8.810935378E-1,1.015293417E1
6.308736167E0,-9.543296215E0,4.634719181E0,9.935641462E-1,1.065562266E1
6.318666167E0,-9.718776419E0,5.119791620E0,7.940156329E-1,1.101350726E1
6.328596167E0,-9.697587864E0,5.339924086E0,2.815463390E-1,1.107417121E1
6.338526167E0,-9.600065078E0,5.325983739E0,-3.986455850E-1,1.098573032E1
6.348456167E0,-9.440048420E0,5.164866636E0,-9.087882900E-1,1.079890076E1
6.358386167E0,-9.287372941E0,4.984180655E0,-1.233109953E0,1.061215874E1
6.368315167E0,-9.161658974E0,4.956111681E0,-1.329902861E0,1.050084186E1
6.378245167E0,-8.949802657E0,5.032664598E0,-1.415274695E0,1.036482914E1
6.388175167E0,-8.465868963E0,4.904648582E0,-1.489109825E0,9.896664240E0
6.398105167E0,-7.844111134E0,4.269465254E0,-1.669216347E0,9.085411176E0
6.408035167E0,-7.443282747E0,3.335300048E0,-2.157827228E0,8.436996077E0
6.417965167E0,-7.199019991E0,2.477350959E0,-2.964534827E0,8.170166665E0
6.427895167E0,-6.603858806E0,1.695721775E0,-3.949327565E0,7.879315433E0
6.437824167E0,-5.343130699E0,5.115860537E-1,-4.870434769E0,7.247889403E0
6.447754167E0,-3.903884175E0,-1.201446988E0,-5.354664917E0,6.734702881E0
6.457683917E0,-2.396871929E0,-2.853434222E0,-5.204807212E0,6.401335799E0
6.467613917E0,-1.763233727E-1,-4.297277827E0,-4.163431553E0,5.985971011E0
6.477543917E0,2.637851474E0,-5.668055795E0,-2.366493305E0,6.684714464E0
6.487473917E0,5.990459572E0,-6.824706972E0,-2.486937761E-1,9.084276511E0
6.497402917E0,1.071279139E1,-7.992605853E0,2.274627700E0,1.355800792E1
6.507332917E0,1.704497043E1,-9.620091206E0,4.733019354E0,2.013650029E1
6.517262917E0,2.265552353E1,-1.142172769E1,6.296656036E0,2.614147064E1
6.527192917E0,2.555489582E1,-1.266228349E1,6.886033155E0,2.933945426E1
6.537122917E0,2.560417615E1,-1.341975169E1,7.014652019E0,2.974674629E1
6.547052917E0,2.375495912E1,-1.380617546E1,7.054029508E0,2.836666875E1
6.556982917E0,2.155975064E1,-1.404656970E1,6.884049779E0,2.663679991E1
6.566911917E0,1.904827796E1,-1.378836484E1,6.372333040E0,2.436313869E1
6.576841917E0,1.613265743E1,-1.254488426E1,5.490495737E0,2.116086720E1
6.586771917E0,1.305547015E1,-1.038829898E1,4.374586204E0,1.724816109E1
6.596701917E0,1.024797867E1,-7.568734758E0,3.357827908E0,1.317504539E1
6.606631917E0,7.809732429E0,-4.582228141E0,2.419305357E0,9.372394239E0
6.616561917E0,5.585511822E0,-1.776734363E0,1.373167140E0,6.019992965E0
6.626490917E0,3.453622842E0,8.598421249E-1,7.038761258E-2,3.559746287E0
6.636420917E0,1.347630596E0,3.306716811E0,-1.196258461E0,3.765835710E0
6.646350917E0,-7.679709649E-1,5.332210439E0,-2.103258673E0,5.783246892E0
6.656280917E0,-2.918373399E0,7.050189056E0,-2.445920859E0,8.012777164E0
6.666210917E0,-4.843069800E0,8.430690359E0,-2.779493256E0,1.011224247E1
6.676140917E0,-7.016526051E0,9.355184855E0,-3.075164732E0,1.209164007E1
6.686070917E0,-8.993849732E0,9.441669853E0,-3.348881668E0,1.346289237E1
6.695999917E0,-9.819320462E0,8.135077940E0,-3.983221536E0,1.335906438E1
6.705929917E0,-1.045180910E1,5.855827432E0,-4.329584863E0,1.273877284E1
6.715859917E0,-1.101047080E1,3.981055727E0,-4.295258199E0,1.247110720E1
6.725789917E0,-1.110031093E1,3.088785529E0,-4.161855143E0,1.225065455E1
6.735719917E0,-1.072071787E1,2.512915186E0,-3.930924039E0,1.169190738E1
6.745649917E0,-1.025002286E1,2.089193780E0,-3.290229417E0,1.096600697E1
6.755579917E0,-9.709726683E0,2.259398627E0,-2.634299290E0,1.031131452E1
6.765508917E0,-9.083336105E0,2.844440327E0,-2.289001325E0,9.789655900E0
6.775438917E0,-8.338446440E0,3.386279874E0,-2.004461778E0,9.220327946E0
6.785368917E0,-7.907800761E0,3.733615302E0,-1.815454041E0,8.931353171E0
6.795298917E0,-7.778946839E0,3.874011919E0,-1.567353757E0,8.830434875E0
6.805228917E0,-7.746324638E0,4.066574472E0,-1.265788288E0,8.839954373E0
6.815158917E0,-7.940718246E0,4.241799153E0,-1.105349461E0,9.070262606E0
6.825087917E0,-8.317106441E0,4.246910496E0,-1.229892815E0,9.419296399E0
6.835017917E0,-9.293064621E0,3.917052397E0,-1.745796161E0,1.023484996E1
6.844947917E0,-1.077265401E1,3.349465805E0,-1.929750150E0,1.144521434E1
6.854877917E0,-1.209422649E1,2.999755239E0,-1.931494374E0,1.260950104E1
6.864807917E0,-1.312991807E1,2.822615010E0,-2.175894978E0,1.360501463E1
6.874737917E0,-1.348619360E1,2.405990954E0,-2.669244590E0,1.395675739E1
6.884667917E0,-1.273604495E1,2.044246818E0,-3.080998499E0,1.326191305E1
6.894596917E0,-1.077246339E1,2.005315180E0,-3.099861032E0,1.138755439E1
6.904526917E0,-8.252517512E0,1.931867134E0,-2.540088367E0,8.848062208E0
6.914456917E0,-5.252797065E0,1.721224406E0,-1.336334944E0,5.686851637E0
6.924386917E0,-1.612532853E0,9.682389781E-1,1.271885983E-1,1.885185896E0
6.934316917E0,2.057667933E0,-3.120208758E-1,1.776432062E0,2.736250211E0
6.944246917E0,5.062908152E0,-1.591774068E0,3.757341256E0,6.502645381E0
6.954176917E0,7.386740756E0,-1.402196812E0,5.438719811E0,9.279534907E0
6.964105917E0,1.113983226E1,-8.912980986E-1,6.334137858E0,1.284568322E1
6.974035917E0,1.665430625E1,-1.705104218E0,7.231113603E0,1.823629077E1
6.983965917E0,2.192166990E1,-2.276269890E0,8.328650014E0,2.356071788E1
6.993895917E0,2.578476390E1,-1.910437674E0,9.702546887E0,2.761599605E1
7.003825917E0,2.797100509E1,-1.544187089E0,1.065439641E1,2.997128296E1
7.013755917E0,2.875860399E1,-2.271290694E0,1.017094161E1,3.058862726E1
7.023684917E0,2.857277714E1,-4.444536445E0,8.206284163E0,3.005828666E1
7.033614917E0,2.805360286E1,-7.060707613E0,5.879709799E0,2.951997989E1
7.043544917E0,2.765709147E1,-9.117515420E0,4.160054201E0,2.941682932E1
7.053474917E0,2.585363241E1,-9.157380567E0,3.085242409E0,2.760048275E1
7.063404917E0,2.226651997E1,-7.429147103E0,2.340233313E0,2.358954917E1
7.073334917E0,1.792963661E1,-5.380116677E0,1.528381334E0,1.878173246E1
7.083264917E0,1.313768785E1,-3.140696525E0,6.824300006E-1,1.352510730E1
7.093193917E0,8.231738262E0,-1.516772418E0,-2.894582248E-1,8.375314887E0
7.103123917E0,2.843698023E0,-5.721066360E-1,-1.141858233E0,3.117332942E0
7.113053917E0,-2.416383503E0,3.370833577E-1,-1.533497794E0,2.881692195E0
7.122983917E0,-7.229157125E0,1.492651484E0,-1.698396292E0,7.574514582E0
7.132913917E0,-1.120663669E1,2.397393793E0,-1.877572521E0,1.161298762E1
7.142843917E0,-1.365416773E1,2.574023268E0,-2.040171894E0,1.404365314E1
7.152773917E0,-1.470612393E1,1.810036888E0,-2.376288561E0,1.500643401E1
7.162702917E0,-1.532917867E1,4.438931304E-1,-2.875328536E0,1.560282904E1
7.172632917E0,-1.587261187E1,-7.066965303E-1,-3.300660850E0,1.622755649E1
7.182562917E0,-1.658554300E1,-1.403854790E0,-3.553830670E0,1.702001049E1
7.192492917E0,-1.722315263E1,-1.410132799E0,-3.622270575E0,1.765633895E1
7.202422917E0,-1.739929532E1,-9.292523754E-1,-3.270155926E0,1.772830808E1
7.212352917E0,-1.662091164E1,-3.230463856E-1,-2.502884288E0,1.681140959E1
7.222281917E0,-1.497461521E1,4.016553296E-1,-1.746944554E0,1.508151991E1
7.232211917E0,-1.247008434E1,9.632621205E-1,-1.132310972E0,1.255838387E1
7.242141917E0,-9.729778540E0,1.425282789E0,-7.653642031E-1,9.863356621E0
7.252071917E0,-7.126936101E0,1.819924237E0,-6.642495453E-1,7.385564966E0
7.262001917E0,-4.828880362E0,1.827104618E0,-7.330117051E-1,5.214758191E0
7.271931917E0,-3.465410244E0,1.456315424E0,-5.835322416E-1,3.804002188E0
7.281861917E0,-2.967244427E0,1.137779581E0,-3.785651135E-1,3.200373948E0
7.291790917E0,-3.152666652E0,8.948596376E-1,-2.144430892E-1,3.284214766E0
7.301720917E0,-4.243304518E0,6.708867198E-1,-2.478751477E-1,4.303157482E0
7.311650917E0,-5.966586560E0,6.850697261E-1,-6.262625241E-1,6.038350806E0
7.321580917E0,-7.651856437E0,9.359816435E-1,-1.112576035E0,7.788760749E0
7.331510917E0,-9.016106574E0,1.318057133E0,-1.885329437E0,9.304940593E0
7.341440917E0,-1.037349734E1,1.655891127E0,-3.032790545E0,1.093385755E1
7.351370917E0,-1.199734748E1,1.789346223E0,-4.501245081E0,1.293828867E1
7.361299917E0,-1.332774809E1,1.694859019E0,-5.938369067E0,1.468896332E1
7.371229917E0,-1.382972336E1,1.464756465E0,-6.951948817E0,1.554787291E1
7.381159917E0,-1.349663322E1,1.020475371E0,-7.222274952E0,1.534150363E1
7.391089917E0,-1.218763810E1,2.685155448E-1,-6.609744614E0,1.386720400E1
7.401019917E0,-9.860516435E0,-7.252734268E-1,-5.420202849E0,1.127538934E1
7.410949917E0,-6.365814564E0,-2.040439696E0,-4.214635620E0,7.902540264E0
7.420878917E0,-1.571989430E0,-3.988964963E0,-3.108478074E0,5.295812325E0
7.430808917E0,4.379006115E0,-6.059055598E0,-1.988831002E0,7.735845011E0
7.440738917E0,1.099857288E1,-7.327945833E0,-5.663578729E-1,1.322830892E1
7.450668917E0,1.762686662E1,-6.989794920E0,8.201023277E-1,1.897989008E1
7.460598750E0,2.319584368E1,-6.033283410E0,1.682760837E0,2.402663848E1
7.470528750E0,2.701184187E1,-6.336912947E0,2.056017702E0,2.782127379E1
7.480458750E0,2.935716007E1,-7.667857928E0,2.027504340E0,3.040969691E1
7.490387750E0,2.933938921E1,-7.744062350E0,1.803657576E0,3.039775389E1
7.500317750E0,2.655607713E1,-6.294476194E0,2.065975510E0,2.736994553E1
7.510247750E0,2.291857339E1,-5.669393054E0,2.649994386E0,2.375764076E1
7.520177750E0,1.950918123E1,-6.313933389E0,3.312288623E0,2.077125810E1
7.530107750E0,1.628175208E1,-7.220441265E0,3.507148254E0,1.815296978E1
7.540037750E0,1.318824288E1,-7.603139191E0,3.077310076E0,1.553085036E1
7.549967750E0,1.014690721E1,-7.328162765E0,2.496769270E0,1.276305419E1
7.559896750E0,7.298730220E0,-6.461927587E0,2.000354694E0,9.951351158E0
7.569826750E0,4.645767202E0,-5.075158653E0,1.477201971E0,7.037223452E0
7.579756750E0,2.436961609E0,-3.258988621E0,7.661998433E-1,4.140875622E0
7.589686750E0,6.143991083E-1,-1.278817346E0,-3.192193465E-1,1.454221805E0
7.599616750E0,-1.181531079E0,5.249791011E-1,-1.635253379E0,2.084627632E0
7.609546750E0,-2.691750523E0,2.183309686E0,-2.816118461E0,4.465745766E0
7.619476750E0,-3.948776758E0,3.821716762E0,-3.595149434E0,6.566845235E0
7.629405750E0,-5.226624928E0,5.334113708E0,-3.923270034E0,8.435782414E0
7.639335750E0,-6.494883664E0,6.549970282E0,-3.827611340E0,9.986802945E0
7.649265750E0,-7.736653343E0,7.442084652E0,-3.358116760E0,1.124799436E1
7.659195750E0,-9.003834438E0,8.013273422E0,-2.727592785E0,1.235804790E1
7.669125750E0,-1.015263748E1,8.006315820E0,-2.117641654E0,1.310196730E1
7.679055750E0,-1.096423101E1,7.263901280E0,-1.429289886E0,1.322956889E1
7.688984750E0,-1.137717659E1,6.001112030E0,-7.479781651E-1,1.288460182E1
7.698914750E0,-1.145981996E1,4.787033594E0,-7.737035751E-2,1.241970814E1
7.708844750E0,-1.146879661E1,4.144552647E0,5.339905375E-1,1.220638186E1
7.718774750E0,-1.169975461E1,3.823179443E0,1.269750361E0,1.237389288E1
7.728704750E0,-1.170689289E1,3.791249260E0,1.913741643E0,1.245340593E1
7.738634750E0,-1.150792851E1,3.832191171E0,2.179450817E0,1.232347815E1
7.748564750E0,-1.126921827E1,4.074334019E0,2.430104579E0,1.222705551E1
7.758493750E0,-1.073464828E1,4.489691568E0,2.631543497E0,1.192958613E1
7.768423750E0,-9.901970855E0,4.831322159E0,2.642723374E0,1.133025540E1
7.778353750E0,-9.241331965E0,5.088479780E0,2.492986121E0,1.084019478E1
7.788283750E0,-8.757056209E0,5.268682780E0,2.300498121E0,1.047555933E1
7.798213750E0,-8.251775501E0,5.287404980E0,2.140415390E0,1.003144199E1
7.808143750E0,-7.949845750E0,5.092793856E0,2.072825670E0,9.666085193E0
7.818073750E0,-7.772853456E0,4.890691279E0,2.113426981E0,9.423517689E0
7.828002750E0,-7.410557050E0,4.911763474E0,2.079953426E0,9.130606906E0
7.837932750E0,-6.611298804E0,5.148404385E0,2.056922997E0,8.628225298E0
7.847862750E0,-4.754104999E0,5.481589842E0,2.078050742E0,7.547690801E0
7.857792750E0,-1.870681577E0,5.516150980E0,1.894729421E0,6.125142511E0
7.867722750E0,1.025671207E0,4.887175348E0,1.158409435E0,5.126245870E0
7.877652750E0,3.697916588E0,3.417985817E0,-1.326288843E-1,5.037341020E0
7.887582750E0,6.735036412E0,6.590899622E-1,-1.355364708E0,6.901603331E0
7.897511750E0,9.995221081E0,-3.037128595E0,-1.735666298E0,1.058967101E1
7.907441750E0,1.254898550E1,-6.265496809E0,-1.716722196E0,1.413083941E1
7.917371750E0,1.369994441E1,-7.476014875E0,-2.165534005E0,1.575654825E1
7.927301750E0,1.339507644E1,-7.507864074E0,-2.810861229E0,1.561079872E1
7.937231750E0,1.202564801E1,-7.236356217E0,-1.960623302E0,1.417127746E1
7.947161750E0,1.182593518E1,-7.967817752E0,8.860765350E-1,1.428719687E1
7.957091750E0,1.392479207E1,-9.626461748E0,4.257538396E0,1.745552157E1
7.967020750E0,1.600446308E1,-1.097745508E1,6.216049245E0,2.037858255E1
7.976950750E0,1.687306813E1,-1.186084540E1,7.139901717E0,2.182563352E1
7.986880750E0,1.674302723E1,-1.297333548E1,7.754240599E0,2.255581170E1
7.996810750E0,1.443818813E1,-1.416130610E1,6.936834934E0,2.138044775E1
8.006740750E0,1.084838130E1,-1.465712309E1,5.071816970E0,1.892728088E1
8.016670750E0,7.185897084E0,-1.385083532E1,3.312276344E0,1.595161216E1
8.026600750E0,3.611037489E0,-1.165912582E1,1.663676841E0,1.231838574E1
8.036529750E0,9.892360371E-1,-8.822153846E0,3.067952192E-1,8.882742241E0
8.046459750E0,-1.832447219E-1,-6.051524384E0,-9.894839591E-1,6.134623420E0
8.056389750E0,-3.769916278E-1,-3.675109524E0,-2.363477896E0,4.385724622E0
8.066319750E0,-2.357497948E-1,-1.873720960E0,-3.864308465E0,4.301079878E0
8.076249750E0,-5.822633958E-1,-3.412063757E-1,-5.012071874E0,5.057303325E0
8.086179750E0,-1.648772142E0,1.208132402E0,-5.376532919E0,5.751968333E0
8.096108750E0,-2.988455202E0,2.759413625E0,-5.009942318E0,6.453274369E0
8.106038750E0,-4.497616299E0,4.177418970E0,-3.876582355E0,7.259977437E0
8.115968750E0,-6.146397797E0,5.545427989E0,-2.591649114E0,8.674481114E0
8.125898750E0,-7.555368608E0,6.711037685E0,-1.502956032E0,1.021667747E1
8.135828750E0,-8.489353135E0,7.492064313E0,-5.789092867E-1,1.133734009E1
8.145758750E0,-8.860936089E0,7.741950921E0,1.590968907E-1,1.176772298E1
8.155688750E0,-8.792818365E0,7.665934778E0,6.597524518E-1,1.168398409E1
8.165617750E0,-8.480465367E0,7.543795214E0,9.217096134E-1,1.138756724E1
8.175547750E0,-8.025305237E0,7.379591950E0,9.362256186E-1,1.094259658E1
8.185477750E0,-7.585734369E0,7.254320033E0,8.418667607E-1,1.052982738E1
8.195407750E0,-7.194513541E0,7.131954181E0,8.012104855E-1,1.016207330E1
8.205337750E0,-6.890491072E0,6.783519185E0,4.282775563E-1,9.678761357E0
8.215267750E0,-6.695887549E0,6.103405559E0,-2.835537064E-1,9.064594431E0
8.225197750E0,-6.758655070E0,5.369611570E0,-9.463363315E-1,8.683760661E0
8.235126750E0,-7.009846777E0,4.809295990E0,-1.353333385E0,8.608065462E0
8.245056750E0,-7.204728627E0,4.300627697E0,-1.567501838E0,8.535840626E0
8.254986750E0,-7.187527288E0,3.664210606E0,-1.686543986E0,8.242051838E0
8.264916750E0,-6.931023971E0,2.997238889E0,-1.792889636E0,7.761249093E0
8.274846750E0,-6.678060558E0,2.085487815E0,-2.230415148E0,7.343058217E0
8.284776750E0,-6.686286421E0,6.749367937E-1,-3.313890175E0,7.492918915E0
8.294706750E0,-7.142220722E0,-1.206224163E0,-4.891709279E0,8.740429809E0
8.304635750E0,-7.927906997E0,-3.287660443E0,-6.734691426E0,1.090946787E1
8.314565750E0,-8.186871407E0,-5.616629534E0,-8.553760800E0,1.310489277E1
8.324495750E0,-6.651440524E0,-8.207395134E0,-9.722282410E0,1.435708087E1
8.334425750E0,-4.384775562E0,-1.027388885E1,-1.006509765E1,1.503613114E1
8.344355750E0,-2.485499931E0,-1.078905545E1,-9.276888299E0,1.444444820E1
8.354285750E0,-9.026826274E-1,-1.026975604E1,-7.272977913E0,1.261661337E1
8.364215750E0,1.795948899E0,-1.055628949E1,-4.318817800E0,1.154611915E1
8.374144750E0,5.236951110E0,-1.173208270E1,-1.144288409E0,1.289871378E1
8.384074750E0,8.479973617E0,-1.244276615E1,1.850504590E0,1.517091788E1
8.394004750E0,1.171673960E1,-1.151659409E1,4.115802473E0,1.693675755E1
8.403934750E0,1.505788306E1,-9.468055413E0,5.386715845E0,1.858495691E1
8.413864750E0,1.752634129E1,-7.558105690E0,5.717201643E0,1.992445721E1
8.423794750E0,1.809602147E1,-6.063249221E0,5.204030117E0,1.978158016E1
8.433724750E0,1.729885302E1,-4.803952512E0,3.737788167E0,1.833846602E1
8.443653750E0,1.587697390E1,-4.855910870E0,1.899586118E0,1.671127158E1
8.453584750E0,1.394739858E1,-4.718019492E0,1.239621413E-1,1.472429970E1
8.463514750E0,1.167230310E1,-4.024764541E0,-1.198734173E0,1.240477138E1
8.473444750E0,9.326836385E0,-3.066725154E0,-2.132699404E0,1.004704369E1
8.483374750E0,7.214150246E0,-1.838313438E0,-2.590129423E0,7.882393703E0
8.493304750E0,5.454600849E0,-8.074285609E-1,-2.735594700E0,6.155330183E0
8.503233750E0,3.923284067E0,-8.048896998E-2,-2.765475726E0,4.800676237E0
8.513163750E0,2.663397374E0,3.302875775E-1,-2.969544722E0,4.002620556E0
8.523093750E0,1.473447474E0,7.045976722E-1,-2.959378753E0,3.380152059E0
8.533023750E0,4.505583715E-1,1.232914364E0,-2.736406878E0,3.034963472E0
8.542953750E0,-6.489520597E-1,1.966607781E0,-2.423603645E0,3.187873832E0
8.552883750E0,-2.000155889E0,2.961535206E0,-2.053745620E0,4.121793957E0
8.562813750E0,-3.411835715E0,4.169077039E0,-1.659275495E0,5.636933695E0
8.572742750E0,-4.947771213E0,5.449158261E0,-1.389181495E0,7.490233037E0
8.582672750E0,-6.646241764E0,6.708558465E0,-1.151410902E0,9.513308223E0
8.592602750E0,-8.250933502E0,7.909209940E0,-8.855175412E-1,1.146375361E1
8.602532750E0,-9.506259366E0,8.863510618E0,-6.797206932E-1,1.301509922E1
8.612462750E0,-1.028869868E1,9.194360113E0,-4.586018379E-1,1.380593691E1
8.622392750E0,-1.028879458E1,8.770387861E0,-7.040109772E-2,1.351976159E1
8.632322750E0,-9.655601347E0,7.897856401E0,4.363980963E-1,1.248187552E1
8.642251750E0,-8.856270595E0,7.171539246E0,1.037835170E0,1.144297190E1
8.652181750E0,-8.306812418E0,7.163842556E0,1.755516572E0,1.110880782E1
8.662111750E0,-7.860824230E0,7.841879252E0,2.573823293E0,1.139790306E1
8.672041750E0,-7.391233757E0,8.859377221E0,3.251290469E0,1.198706765E1
8.681971750E0,-6.583970672E0,9.940049093E0,3.557833089E0,1.244232382E1
8.691901750E0,-5.384827194E0,1.051323293E1,3.347003542E0,1.227708692E1
8.701831750E0,-4.154868305E0,1.022601770E1,2.723934767E0,1.136900124E1
8.711760750E0,-3.254529242E0,8.939277669E0,2.382155072E0,9.807003039E0
8.721690750E0,-3.488837698E0,7.077346449E0,2.362389729E0,8.236607705E0
8.731620750E0,-4.017012010E0,5.655087256E0,2.941854063E0,7.534646819E0
8.741550750E0,-4.378138973E0,5.382602329E0,3.980830609E0,7.999220026E0
8.751480750E0,-3.803346564E0,5.787523182E0,4.400698115E0,8.205303990E0
8.761410750E0,-1.650071978E0,6.114850899E0,3.818215449E0,7.395465385E0
8.771340750E0,1.515384289E0,5.655889494E0,2.532629659E0,6.379630749E0
8.781269750E0,5.489932650E0,4.452337800E0,8.978317042E-1,7.125220990E0
8.791199750E0,9.634347303E0,2.424035169E0,-3.612765048E-1,9.941182785E0
8.801129750E0,1.310958145E1,-2.256668562E-1,-3.706332193E-1,1.311676105E1
8.811059750E0,1.580468477E1,-2.736844835E0,5.083603641E-1,1.604795347E1
8.820989750E0,1.712790499E1,-4.450329282E0,1.946251577E0,1.780332709E1
8.830919750E0,1.775852019E1,-6.504148577E0,3.486881220E0,1.923089516E1
8.840849750E0,1.809091568E1,-9.128466670E0,4.794057854E0,2.082289905E1
8.850778750E0,1.832083522E1,-1.139197589E1,5.981140864E0,2.238758951E1
8.860708750E0,1.766322694E1,-1.339856956E1,6.940677139E0,2.323110526E1
8.870638750E0,1.637389718E1,-1.419731676E1,7.970256041E0,2.309097862E1
8.880568750E0,1.494861030E1,-1.391238077E1,8.942895341E0,2.229328746E1
8.890498750E0,1.331440006E1,-1.352588216E1,8.768889804E0,2.090732325E1
8.900428750E0,1.093619245E1,-1.295777838E1,7.732091931E0,1.863570689E1
8.910358750E0,8.354384780E0,-1.174012262E1,6.742566456E0,1.590875314E1
8.920287750E0,5.485403981E0,-1.073708657E1,5.315266963E0,1.317675027E1
8.930217750E0,2.616447741E0,-1.001245984E1,3.832535865E0,1.103555536E1
8.940147750E0,3.369399548E-2,-8.942171456E0,2.521074976E0,9.290822604E0
8.950077750E0,-2.203747167E0,-7.400525567E0,9.339405267E-1,7.777951218E0
8.960007750E0,-4.535890419E0,-6.091498289E0,-6.135063846E-1,7.619517267E0
8.969937750E0,-6.893624595E0,-4.863752279E0,-1.725991787E0,8.611457132E0
8.979867750E0,-9.064037370E0,-3.627790639E0,-2.658577222E0,1.011858049E1
8.989796750E0,-1.048849687E1,-2.519461144E0,-3.543244286E0,1.135389057E1
8.999726750E0,-1.127421764E1,-1.840404402E0,-4.359784270E0,1.222713338E1
9.009656750E0,-1.187891914E1,-1.558353430E0,-5.076384230E0,1.301179704E1
9.019586750E0,-1.267453458E1,-1.465015496E0,-5.721619799E0,1.398309802E1
9.029516750E0,-1.357723358E1,-1.597825352E0,-6.392229946E0,1.509155132E1
9.039446750E0,-1.428341467E1,-2.017174502E0,-7.006593386E0,1.603674776E1
9.049375750E0,-1.476786117E1,-2.366415245E0,-7.530755339E0,1.674520590E1
9.059305750E0,-1.486850227E1,-2.396595648E0,-7.741725218E0,1.693370426E1
9.069235750E0,-1.447066474E1,-2.220137059E0,-7.541240566E0,1.646813456E1
9.079165750E0,-1.356193843E1,-1.967569356E0,-6.999025919E0,1.538778304E1
9.089095750E0,-1.219436941E1,-1.513818697E0,-6.066107340E0,1.370372032E1
9.099025750E0,-1.058111677E1,-9.938319486E-1,-5.083444158E0,1.178088021E1
9.108955750E0,-8.682700092E0,-6.348564693E-1,-4.325437433E0,9.721200163E0
9.118884750E0,-7.229951177E0,-3.060727957E-1,-3.827819793E0,8.186457044E0
9.128814750E0,-6.365964838E0,-1.889980897E-2,-3.438813014E0,7.235419854E0
9.138744750E0,-6.263819827E0,1.394594555E-1,-3.140627235E0,7.008453981E0
9.148674750E0,-6.944551504E0,1.131083934E-1,-2.982885144E0,7.558914796E0
9.158604750E0,-7.948927152E0,-2.010531481E-1,-2.891597244E0,8.460921927E0
9.168534750E0,-8.341867061E0,-6.940010557E-1,-2.972629713E0,8.882843629E0
9.178464750E0,-7.799996231E0,-1.368155784E0,-3.507999024E0,8.661284466E0
9.188393750E0,-6.618065202E0,-2.138726567E0,-4.064785516E0,8.055769339E0
9.198323750E0,-4.273152215E0,-2.958043249E0,-4.388529475E0,6.802135008E0
9.208253750E0,-2.803815919E-1,-3.759907307E0,-4.170171638E0,5.621907886E0
9.218183750E0,4.470248991E0,-3.984640070E0,-3.277868988E0,6.826778716E0
9.228113750E0,9.967959023E0,-2.996110377E0,-1.839673208E0,1.056982885E1
9.238043750E0,1.600015017E1,-1.144872838E0,-5.298553866E-1,1.604980642E1
9.247973750E0,2.166843869E1,4.505995944E-1,-2.690303922E-3,2.167312350E1
9.257902750E0,2.631907311E1,1.479208443E0,-3.595026058E-1,2.636305956E1
9.267832750E0,2.974330785E1,1.516734703E0,-1.161151852E0,2.980458219E1
9.277762750E0,3.143603936E1,4.407178000E-1,-1.161121958E0,3.146056272E1
9.287692750E0,3.078275568E1,-1.320102489E0,5.295273578E-1,3.081559860E1
9.297622750E0,2.681725355E1,-3.274608580E0,3.167380001E0,2.720147873E1
9.307552750E0,2.063429077E1,-5.764388673E0,5.266021712E0,2.206202885E1
9.317482750E0,1.376289203E1,-8.349349743E0,5.864600594E0,1.713249480E1
9.327411750E0,6.494990668E0,-9.655522410E0,4.871031185E0,1.261510847E1
9.337341750E0,5.534214199E-1,-9.775165213E0,2.513040609E0,1.010818991E1
9.347271750E0,-3.805651537E0,-9.432129536E0,-5.234427452E-1,1.018440197E1
9.357201750E0,-6.763065040E0,-8.743196554E0,-3.328615803E0,1.154392558E1
9.367131750E0,-8.048636212E0,-7.617765416E0,-5.122544489E0,1.220865909E1
9.377061750E0,-8.008207394E0,-6.121696819E0,-5.740189387E0,1.159984189E1
9.386991750E0,-6.738041296E0,-4.769087027E0,-5.483801844E0,9.910472958E0
9.396920750E0,-5.384265277E0,-3.730389100E0,-4.605941817E0,8.007547404E0
9.406850750E0,-4.991610712E0,-2.910469717E0,-3.170492474E0,6.590829539E0
9.416780750E0,-5.487814204E0,-2.477904690E0,-1.402727739E0,6.182536817E0
9.426710750E0,-6.825358937E0,-2.197471935E0,4.857434801E-1,7.186818089E0
9.436640750E0,-8.448462971E0,-2.066458637E0,2.446072156E0,9.034934802E0
9.446570750E0,-1.007307091E1,-1.906874088E0,4.434787382E0,1.117006112E1
9.456500167E0,-1.139138415E1,-1.509934392E0,6.019435449E0,1.297216782E1
9.466429167E0,-1.208274724E1,-1.063335170E0,6.806287073E0,1.390859469E1
9.476359167E0,-1.220177550E1,-6.548840600E-1,6.993510826E0,1.407911191E1
9.486289167E0,-1.160953324E1,-2.130044183E-1,6.683525950E0,1.339761740E1
9.496219167E0,-1.012226938E1,1.603245136E-1,5.721827960E0,1.162864380E1
9.506149167E0,-8.471037317E0,6.868659908E-1,4.434531274E0,9.586204971E0
9.516079167E0,-7.090098057E0,1.352459226E0,3.379853200E0,7.970071773E0
9.526009167E0,-6.282843744E0,2.091010510E0,2.393073432E0,7.040827431E0
9.535938167E0,-6.029627146E0,2.662997132E0,1.307374855E0,6.719909691E0
9.545868167E0,-6.253243384E0,2.933569435E0,1.084119829E-1,6.908012421E0
9.555798167E0,-6.654698592E0,2.976521620E0,-1.092826479E0,7.371496729E0
9.565728167E0,-7.095702029E0,2.714909298E0,-2.062237093E0,7.872264071E0
9.575658167E0,-7.563054188E0,2.619236863E0,-2.620080616E0,8.421698928E0
9.585588167E0,-8.014038237E0,2.829060396E0,-2.865263139E0,8.968730370E0
9.595518167E0,-8.328548273E0,3.089072335E0,-3.095670918E0,9.406926313E0
9.605447167E0,-8.359998692E0,3.289417239E0,-3.201864540E0,9.537388554E0
9.615377167E0,-7.897168184E0,3.405974466E0,-3.114362127E0,9.146867160E0
9.625307167E0,-6.891041880E0,3.233040724E0,-2.879943159E0,8.138371035E0
9.635237167E0,-5.102954562E0,2.603885290E0,-2.423977428E0,6.220613349E0
9.645167167E0,-2.618985432E0,1.314266675E0,-1.738743395E0,3.407287805E0
9.655097167E0,6.523446143E-1,-7.935680285E-1,-1.007564135E0,1.438919455E0
9.665027167E0,4.351468652E0,-2.754438230E0,-1.262920082E0,5.302563204E0
9.674956167E0,7.341021377E0,-4.231238497E0,-1.282465131E0,8.569637733E0
9.684886167E0,9.271278480E0,-4.655710100E0,-8.991228426E-1,1.041348468E1
9.694816167E0,1.060430449E1,-4.731135089E0,-7.624687350E-1,1.163684972E1
9.704746167E0,1.202268698E1,-5.667951715E0,-1.326816554E-1,1.329241450E1
9.714676167E0,1.363666818E1,-7.738671802E0,1.591688114E0,1.576005176E1
9.724606167E0,1.381334531E1,-9.045747280E0,4.250185522E0,1.704987183E1
9.734536167E0,1.233648365E1,-8.565548787E0,6.104984307E0,1.621197978E1
9.744465167E0,1.024418266E1,-7.240365068E0,6.459868782E0,1.411014066E1
9.754395167E0,8.957384741E0,-5.485085308E0,5.498636815E0,1.185562774E1
9.764325167E0,8.832123933E0,-4.684159728E0,3.228248931E0,1.050568211E1
9.774255167E0,9.091566061E0,-4.507755079E0,2.576733452E-1,1.015100117E1
9.784185167E0,9.572002535E0,-4.258673632E0,-1.771555485E0,1.062534435E1
9.794115167E0,9.617567548E0,-3.919474314E0,-2.159977250E0,1.060779837E1
9.804045167E0,9.243221201E0,-3.493844377E0,-1.731730683E0,1.003209738E1
9.813974167E0,8.629992705E0,-3.190224488E0,-1.489611809E0,9.320582048E0
9.823904167E0,7.500274388E0,-2.996115054E0,-1.492025540E0,8.213218707E0
9.833834167E0,5.668655720E0,-2.697204806E0,-1.322193746E0,6.415354061E0
9.843764167E0,3.810749139E0,-2.000198866E0,-8.894544715E-1,4.394739328E0
9.853694167E0,1.788094334E0,-1.052275308E0,-6.362264720E-1,2.170103406E0
9.863624167E0,-1.940632403E-1,1.481953418E-1,-5.770219517E-1,6.265594411E-1
9.873554167E0,-1.939116805E0,1.774494295E0,-6.924945205E-1,2.718189222E0
9.883483167E0,-3.242347153E0,3.581542671E0,-1.107881890E0,4.956577977E0
9.893413167E0,-4.398749823E0,4.787484122E0,-1.743628305E0,6.731214147E0
9.903343167E0,-5.419976562E0,5.401771840E0,-2.466385091E0,8.039797284E0
9.913273167E0,-6.250271829E0,5.393305072E0,-3.222772429E0,8.862273956E0
9.923203167E0,-7.037128716E0,4.939107978E0,-3.993610868E0,9.479709698E0
9.933133167E0,-7.658457359E0,4.185786920E0,-4.661389793E0,9.894510400E0
9.943063167E0,-8.119130244E0,3.195953005E0,-5.171033109E0,1.014268086E1
9.952992167E0,-8.604496506E0,2.383494084E0,-5.348488503E0,1.040791686E1
9.962922167E0,-9.038602567E0,1.782358215E0,-5.126353950E0,1.054289533E1
9.972852167E0,-9.474412506E0,1.273962110E0,-4.615297362E0,1.061548122E1
9.982782167E0,-9.744352140E0,9.446068713E-1,-3.928392195E0,1.054878884E1
9.992712167E0,-9.813826418E0,7.155427828E-1,-3.436848934E0,1.042281733E1
1.000264217E1,-9.712039842E0,7.686591822E-1,-3.089726638E0,1.022061473E1
1.001257217E1,-9.419221807E0,1.226417230E0,-2.692626436E0,9.872997306E0
1.002250117E1,-8.846361319E0,1.806753676E0,-2.318790550E0,9.321977100E0
1.003243117E1,-8.177954988E0,2.213884777E0,-2.031389522E0,8.712449540E0
1.004236117E1,-7.524770129E0,2.201892430E0,-1.816017859E0,8.047882742E0
1.005229117E1,-7.137587973E0,1.847090109E0,-1.702867804E0,7.566813246E0
1.006222117E1,-6.872395109E0,1.399705021E0,-1.665381158E0,7.208500751E0
1.007215117E1,-6.116620851E0,7.314656281E-1,-1.739131212E0,6.400989765E0
1.008208117E1,-4.887374738E0,-2.088847625E-1,-1.835800597E0,5.224962058E0
1.009201017E1,-3.299175072E0,-1.472045311E0,-1.820925280E0,4.045644872E0
1.010194017E1,-1.450671984E0,-2.557206968E0,-1.568131437E0,3.332085366E0
1.011187017E1,1.443470553E0,-3.155896946E0,-1.299372940E0,3.705625833E0
1.012180017E1,5.268409131E0,-3.521553747E0,-7.965095434E-1,6.386853921E0
1.013173017E1,9.528650109E0,-3.995934552E0,-9.121137477E-2,1.033300466E1
1.014166017E1,1.384247380E1,-4.797092266E0,4.940855565E-1,1.465845475E1
1.015159017E1,1.706470595E1,-5.764703838E0,9.848417815E-1,1.803901086E1
1.016151917E1,1.890897507E1,-7.043188185E0,1.151721462E0,2.021094506E1
1.017144917E1,1.966654384E1,-8.592627243E0,8.884605179E-1,2.148011991E1
1.018137917E1,1.945666388E1,-9.593901528E0,6.486807489E-1,2.170312195E1
1.019130917E1,1.798907473E1,-9.218947070E0,7.533003008E-1,2.022778426E1
1.020123917E1,1.555128048E1,-7.628783324E0,1.032811242E0,1.735244532E1
1.021116917E1,1.285829853E1,-5.896946222E0,1.087058201E0,1.418772397E1
1.022109917E1,1.029800628E1,-4.732740442E0,5.280263776E-1,1.134577354E1
1.023102817E1,8.400418739E0,-4.387291912E0,-2.708962387E-1,9.480967782E0
1.024095817E1,7.001978763E0,-4.771527362E0,-1.055760321E0,8.538724134E0
1.025088817E1,5.740358956E0,-5.051430652E0,-1.591617948E0,7.810372607E0
1.026081817E1,4.492262004E0,-4.825609429E0,-1.835807029E0,6.843764441E0
1.027074817E1,3.090337672E0,-4.113760040E0,-1.198392110E0,5.282930271E0
1.028067817E1,1.820777931E0,-3.195595448E0,2.481055462E-1,3.686274393E0
1.029060717E1,7.875667387E-1,-2.424569313E0,1.614175336E0,3.017343159E0
1.030053717E1,1.494606793E-2,-1.704327707E0,2.591384236E0,3.101649331E0
1.031046717E1,-7.296354496E-1,-9.115079762E-1,2.969830066E0,3.191097821E0
1.032039717E1,-1.528823529E0,-7.096736401E-2,3.059725159E0,3.421148316E0
1.033032717E1,-2.267046200E0,8.088308693E-1,3.323477855E0,4.103560759E0
1.034025717E1,-2.935399906E0,1.578651601E0,3.543174119E0,4.864442036E0
1.035018717E1,-3.563074533E0,2.178786719E0,3.660184798E0,5.553338136E0
1.036011717E1,-4.341509675E0,2.630126132E0,3.713882411E0,6.289609868E0
1.037004617E1,-5.118854311E0,2.829905611E0,3.751005213E0,6.948458486E0
1.037997617E1,-6.012952057E0,2.753048054E0,3.856786022E0,7.655694903E0
1.038990617E1,-7.160337151E0,2.753676630E0,4.070661968E0,8.684667636E0
1.039983617E1,-8.187916889E0,2.811354150E0,4.137700295E0,9.595116408E0
1.040976617E1,-9.180912686E0,2.706219750E0,3.983281470E0,1.036722308E1
1.041969617E1,-1.019247222E1,2.287364544E0,3.624266814E0,1.105684569E1
1.042962617E1,-1.103668737E1,1.586391999E0,3.017676662E0,1.155125448E1
1.043955517E1,-1.170342900E1,7.980113277E-1,2.388570052E0,1.197131318E1
1.044948517E1,-1.251756490E1,1.803298849E-1,1.774351623E0,1.264398172E1
1.045941500E1,-1.341516513E1,3.288627572E-2,1.208858115E0,1.346956105E1
1.046934500E1,-1.408065662E1,3.098326284E-1,6.758376304E-1,1.410027105E1
1.047927500E1,-1.412850322E1,9.263077176E-1,1.623233843E-1,1.415976688E1
1.048920500E1,-1.360297887E1,1.635736944E0,-4.773047054E-1,1.370928478E1
1.049913500E1,-1.276917761E1,2.123094183E0,-1.157573283E0,1.299613026E1
1.050906400E1,-1.189914466E1,2.383020899E0,-1.779354501E0,1.226517569E1
1.051899400E1,-1.137574051E1,2.580197343E0,-2.544498922E0,1.193898510E1
1.052892400E1,-1.083584721E1,2.875884606E0,-3.374562639E0,1.170785933E1
1.053885400E1,-1.013625592E1,3.325822588E0,-4.045293238E0,1.140917076E1
1.054878400E1,-9.149791465E0,3.601937467E0,-4.466882164E0,1.080026267E1
1.055871400E1,-7.534736123E0,3.253150761E0,-4.512835432E0,9.365944798E0
1.056864400E1,-5.069008552E0,2.382717282E0,-4.149625107E0,6.970765946E0
1.057857300E1,-1.579034740E0,1.029917017E0,-3.755467808E0,4.202096885E0
1.058850300E1,2.267492927E0,-6.618238279E-1,-3.389587644E0,4.131445189E0
1.059843300E1,5.367872608E0,-2.040764071E0,-2.858309630E0,6.414725892E0
1.060836300E1,7.230967423E0,-2.430672929E0,-2.211014671E0,7.942521428E0
1.061829300E1,8.703106874E0,-1.991788962E0,-1.431771444E0,9.042193429E0
1.062822300E1,1.024624205E1,-1.900093364E0,-6.609646527E-1,1.044187269E1
1.063815300E1,1.183153214E1,-2.849799300E0,-3.100766766E-1,1.217385134E1
1.064808200E1,1.330114793E1,-4.116942095E0,-4.221666312E-1,1.393011031E1
1.065801200E1,1.454693231E1,-4.789208173E0,-8.631273830E-1,1.533932018E1
1.066794200E1,1.594313046E1,-5.478107826E0,-1.254372768E0,1.690463029E1
1.067787200E1,1.686795650E1,-6.130654169E0,-1.207561129E0,1.798808163E1
1.068780200E1,1.684215858E1,-6.271596040E0,-8.643599761E-1,1.799273022E1
1.069773200E1,1.627006700E1,-6.382591980E0,-4.203071801E-1,1.748225440E1
1.070766200E1,1.535681144E1,-6.543415554E0,1.139746584E-2,1.669275515E1
1.071759100E1,1.420135953E1,-6.669697870E0,5.678266934E-1,1.569986972E1
1.072752100E1,1.228071759E1,-6.516938776E0,1.118558321E0,1.394767680E1
1.073745100E1,9.997022023E0,-6.208812146E0,1.364029112E0,1.184695628E1
1.074738100E1,7.596412554E0,-5.616693853E0,1.503019767E0,9.566180113E0
1.075731100E1,5.213963951E0,-4.779399469E0,1.359331459E0,7.202489943E0
1.076724100E1,2.759402223E0,-3.604469604E0,1.192035529E0,4.693341076E0
1.077717100E1,2.554262602E-1,-1.901025411E0,1.044629562E0,2.184122503E0
1.078710000E1,-1.915885232E0,4.177309334E-2,7.108892763E-1,2.043948330E0
1.079703000E1,-3.649089999E0,1.641421899E0,1.468504822E-1,4.003959132E0
1.080696000E1,-5.080470849E0,2.855367604E0,-3.604644728E-1,5.839027559E0
1.081689000E1,-6.269280542E0,3.986687765E0,-6.669848728E-1,7.459385140E0
1.082682000E1,-7.190677183E0,5.075258056E0,-9.739894223E-1,8.855096729E0
1.083675000E1,-7.402258682E0,5.990364847E0,-1.156381620E0,9.592451357E0
1.084668000E1,-6.950157815E0,6.573139290E0,-1.101448783E0,9.629332437E0
1.085660900E1,-6.304826351E0,6.621325024E0,-1.137334900E0,9.213376746E0
1.086653900E1,-5.725486563E0,6.159452291E0,-1.311895337E0,8.511234827E0
1.087646900E1,-5.603777354E0,5.327573597E0,-1.579642850E0,7.891807942E0
1.088639900E1,-6.101995211E0,4.490252024E0,-1.937360301E0,7.819851260E0
1.089632900E1,-6.902839807E0,3.819721399E0,-2.535822823E0,8.286728326E0
1.090625900E1,-7.965613936E0,3.218216863E0,-3.250832047E0,9.185631941E0
1.091618900E1,-9.273505685E0,2.641072120E0,-4.033425729E0,1.045187508E1
1.092611800E1,-1.029744612E1,2.031691385E0,-4.790956491E0,1.153769607E1
1.093604800E1,-1.107330030E1,1.436306837E0,-5.335504761E0,1.237532092E1
1.094597800E1,-1.153564899E1,8.893091682E-1,-5.572139239E0,1.284176017E1
1.095590800E1,-1.171909369E1,4.817111671E-1,-5.577791158E0,1.298772331E1
1.096583800E1,-1.158771494E1,2.465648049E-1,-5.353725269E0,1.276707899E1
1.097576800E1,-1.092271578E1,1.701107061E-1,-4.844460853E0,1.195004011E1
1.098569800E1,-9.752578003E0,8.364383519E-2,-4.219960095E0,1.062675102E1
1.099562700E1,-8.081182984E0,-4.188316718E-1,-3.727459645E0,8.909258880E0
1.100555700E1,-5.959520785E0,-1.622105623E0,-3.439423463E0,7.069423484E0
1.101548700E1,-3.849595116E0,-3.229208167E0,-3.261566366E0,5.990407591E0
1.102541700E1,-2.127763184E0,-4.646039975E0,-3.233043648E0,6.046952526E0
1.103534700E1,-3.948694897E-1,-5.534925220E0,-2.976768372E0,6.297020648E0
1.104527700E1,1.121188399E0,-5.852706773E0,-2.448308716E0,6.442472783E0
1.105520700E1,2.855184293E0,-6.055487627E0,-1.816869067E0,6.937003745E0
1.106513600E1,5.250340065E0,-6.431795715E0,-1.357549227E0,8.412907156E0
1.107506600E1,7.938781064E0,-6.891549418E0,-1.000108935E0,1.056020436E1
1.108499600E1,1.032683539E1,-7.390628570E0,-7.170417897E-1,1.271924010E1
1.109492600E1,1.197116248E1,-7.566749629E0,-4.133420864E-1,1.416810795E1
1.110485600E1,1.227581060E1,-7.878423765E0,-4.815147007E-1,1.459441480E1
1.111478600E1,1.188146151E1,-8.428369015E0,-9.522460393E-1,1.459840075E1
1.112471600E1,1.169261399E1,-8.813138609E0,-1.676461047E0,1.473767810E1
1.113464500E1,1.195596323E1,-9.346120502E0,-2.331193664E0,1.535348459E1
1.114457500E1,1.236828315E1,-9.913032618E0,-2.375336634E0,1.602762827E1
1.115450500E1,1.291184031E1,-9.664714233E0,-1.461926705E0,1.619442964E1
1.116443500E1,1.346771406E1,-8.949762311E0,-1.655359907E-1,1.617111528E1
1.117436500E1,1.333000979E1,-8.633248435E0,8.478194455E-1,1.590411699E1
1.118429500E1,1.204796800E1,-8.513737194E0,1.473825788E0,1.482597101E1
1.119422500E1,9.621023837E0,-7.782979664E0,1.752925086E0,1.249846464E1
1.120415400E1,6.662685889E0,-6.395963978E0,1.841150215E0,9.417514140E0
1.121408400E1,3.643385455E0,-4.756974812E0,1.443607232E0,6.163365053E0
1.122401400E1,1.000530519E0,-3.351565540E0,7.282123104E-1,3.572722499E0
1.123394400E1,-9.762142879E-1,-2.262464614E0,-2.412537789E-1,2.475872342E0
1.124387400E1,-2.422289776E0,-1.158180370E0,-1.189629035E0,2.936679548E0
1.125380400E1,-3.642423003E0,1.635417978E-1,-1.792421858E0,4.062852123E0
1.126373400E1,-4.549361234E0,1.720438833E0,-1.949040699E0,5.239785975E0
1.127366300E1,-5.261660859E0,3.017063289E0,-1.674581898E0,6.292215065E0
1.128359300E1,-5.901230476E0,3.926411450E0,-1.178464361E0,7.185402304E0
1.129352300E1,-6.239798881E0,4.551770287E0,-4.151290686E-1,7.734729146E0
1.130345300E1,-6.511724814E0,4.853890365E0,5.421187520E-1,8.139822140E0
1.131338300E1,-7.161114246E0,4.771428545E0,1.440620913E0,8.724876859E0
1.132331300E1,-8.182425184E0,4.224840181E0,2.248319907E0,9.479256240E0
1.133324300E1,-9.299616426E0,3.551601126E0,3.001979227E0,1.039752930E1
1.134317300E1,-1.056469077E1,3.013436846E0,3.555259144E0,1.154700655E1
1.135310200E1,-1.190590872E1,2.681793884E0,3.943697866E0,1.282557733E1
1.136303200E1,-1.295834088E1,2.525950092E0,4.115769728E0,1.382890389E1
1.137296200E1,-1.365195047E1,2.388359553E0,3.962270962E0,1.441456222E1
1.138289200E1,-1.400544740E1,2.370573931E0,3.686262503E0,1.467517321E1
1.139282200E1,-1.388744240E1,2.517827432E0,3.318186125E0,1.449865065E1
1.140275200E1,-1.323426280E1,2.822115365E0,2.816990865E0,1.382192044E1
1.141268100E1,-1.198311770E1,3.283433783E0,2.269502031E0,1.263038743E1
1.142261100E1,-1.040041909E1,3.695604014E0,1.704505463E0,1.116832777E1
1.143254100E1,-8.373857177E0,4.118284324E0,1.310775011E0,9.423368874E0
1.144247100E1,-6.026546248E0,4.639700716E0,9.587328672E-1,7.665849668E0
1.145240100E1,-4.369940007E0,5.377460872E0,3.156509004E-1,6.936360471E0
1.146233104E1,-3.505782344E0,6.472605187E0,-7.177270103E-1,7.395962400E0
1.147226104E1,-2.620992782E0,7.637733657E0,-1.881689546E0,8.291280608E0
1.148219104E1,-1.168390047E0,8.086043774E0,-2.920384841E0,8.676283009E0
1.149212004E1,9.097799778E-1,7.275040226E0,-3.319939120E0,8.048348008E0
1.150205004E1,3.050634493E0,5.300815569E0,-2.852557724E0,6.748488874E0
1.151198004E1,4.762017451E0,2.501393248E0,-2.083148344E0,5.768300045E0
1.152191004E1,6.023613870E0,-8.436375900E-1,-1.307582431E0,6.221368037E0
1.153184004E1,7.125489500E0,-4.032695704E0,-4.904890072E-1,8.202183534E0
1.154177004E1,8.411630191E0,-6.415134659E0,4.354760635E-1,1.058768693E1
1.155170004E1,9.023464125E0,-7.159999766E0,1.627829754E0,1.163350038E1
1.156162904E1,8.766355036E0,-5.872671506E0,2.924588989E0,1.094945076E1
1.157155904E1,8.865337288E0,-4.227709994E0,4.179398544E0,1.067403903E1
1.158148904E1,9.682791485E0,-3.425051300E0,4.974008839E0,1.141175671E1
1.159141904E1,1.046367310E1,-3.203236881E0,5.148137752E0,1.209349013E1
1.160134904E1,1.044369550E1,-2.964709367E0,4.865752904E0,1.189688315E1
1.161127904E1,1.012963921E1,-2.711738937E0,4.511616288E0,1.141568220E1
1.162120904E1,9.885770559E0,-2.691597033E0,4.280471760E0,1.110385485E1
1.163113804E1,9.598224374E0,-2.880435202E0,4.110903676E0,1.083154408E1
1.164106804E1,9.371937713E0,-3.192843163E0,3.833032878E0,1.061694895E1
1.165099804E1,9.280818213E0,-3.600074252E0,3.282235104E0,1.048175503E1
1.166092804E1,9.214997275E0,-4.184163733E0,2.597568251E0,1.044848131E1
1.167085804E1,9.086630427E0,-4.830098922E0,1.963702592E0,1.047629877E1
1.168078804E1,8.660355542E0,-5.166806742E0,1.568126759E0,1.020571759E1
1.169071804E1,7.784752539E0,-4.970173650E0,1.482967910E0,9.354367538E0
1.170064704E1,6.556160730E0,-4.426261557E0,1.629761674E0,8.076580836E0
1.171057704E1,5.248166655E0,-3.699491243E0,1.841547825E0,6.679879272E0
1.172050704E1,3.987133323E0,-2.964936824E0,1.933491783E0,5.331648242E0
1.173043704E1,2.659917111E0,-2.174169758E0,1.907502664E0,3.929470650E0
1.174036704E1,1.543913439E0,-1.448294798E0,1.796378669E0,2.776365043E0
1.175029704E1,3.989362282E-1,-9.126334190E-1,1.508721387E0,1.807841280E0
1.176022704E1,-1.082134845E0,-4.712610233E-1,8.838388056E-1,1.474541898E0
1.177015604E1,-2.923699628E0,-1.222164550E-1,1.476407334E-2,2.926290203E0
1.178008604E1,-4.843332925E0,2.080623516E-1,-1.020577698E0,4.954063241E0
1.179001604E1,-6.683594947E0,5.936843236E-1,-2.256918823E0,7.079306821E0
1.179994604E1,-8.363239219E0,9.588075654E-1,-3.665068685E0,9.181275001E0
1.180987604E1,-9.820342555E0,1.219751112E0,-5.042125978E0,1.110630249E1
1.181980604E1,-1.106342552E1,1.358739428E0,-6.099666849E0,1.270635639E1
1.182973604E1,-1.211642018E1,1.333386194E0,-6.687718989E0,1.390363773E1
1.183966504E1,-1.276854845E1,1.179255635E0,-6.825211587E0,1.452618279E1
1.184959504E1,-1.287543087E1,9.500642239E-1,-6.816542505E0,1.459947238E1
1.185952504E1,-1.243764048E1,6.556143773E-1,-6.647043418E0,1.411764559E1
1.186945504E1,-1.141920520E1,4.607480219E-1,-6.215179764E0,1.300918890E1
1.187938504E1,-1.036341674E1,5.324325469E-1,-5.654596674E0,1.181771359E1
1.188931504E1,-9.394701508E0,7.429024896E-1,-5.113369623E0,1.072188740E1
1.189924504E1,-8.416577520E0,8.932016596E-1,-4.690758896E0,9.676766266E0
1.190917404E1,-7.364003858E0,9.135705815E-1,-4.389428484E0,8.621499083E0
1.191910404E1,-6.271182641E0,8.893712948E-1,-4.111208608E0,7.551208462E0
1.192903404E1,-5.363110635E0,1.012475796E0,-3.864639418E0,6.687563140E0
1.193896404E1,-4.701608112E0,1.247071643E0,-3.797768613E0,6.171171117E0
1.194889404E1,-4.188333090E0,1.296102154E0,-3.937020638E0,5.892550074E0
1.195882404E1,-4.053734863E0,1.039585826E0,-4.112040374E0,5.867058980E0
1.196875404E1,-4.063085146E0,5.749932602E-1,-4.550770998E0,6.127707143E0
1.197868404E1,-3.857616327E0,-4.250779599E-2,-5.093161061E0,6.389311405E0
1.198861304E1,-3.330852363E0,-9.260323137E-1,-5.556184527E0,6.543951391E0
1.199854304E1,-2.421538993E0,-2.209259337E0,-6.063012993E0,6.892372920E0
1.200847304E1,-5.630932993E-1,-4.076709158E0,-6.220889570E0,7.458960964E0
1.201840304E1,1.961643788E0,-6.228553516E0,-5.742890216E0,8.696189584E0
1.202833304E1,4.519891267E0,-7.778719382E0,-4.828302657E0,1.021030846E1
1.203826304E1,6.449379462E0,-8.381160350E0,-3.271502540E0,1.106982715E1
1.204819304E1,8.055731224E0,-8.963424915E0,-1.013557531E0,1.209401053E1
1.205812204E1,1.101196768E1,-1.041804494E1,1.516530343E0,1.523479428E1
1.206805204E1,1.452437843E1,-1.201147202E1,4.507370625E0,1.937909747E1
1.207798204E1,1.669595480E1,-1.167619618E1,7.753355330E0,2.179915097E1
1.208791204E1,1.644434093E1,-9.180188801E0,1.009511608E1,2.136828453E1
1.209784204E1,1.406821024E1,-6.001797323E0,1.053817482E1,1.857388594E1
1.210777204E1,1.089282014E1,-3.742017166E0,9.277137390E0,1.478923599E1
1.211770204E1,8.095301086E0,-2.806011549E0,6.944437484E0,1.102872669E1
1.212763104E1,6.278921431E0,-2.811537752E0,4.215212740E0,8.068309446E0
1.213756104E1,4.918046308E0,-3.025671268E0,1.620630662E0,5.997358573E0
1.214749104E1,4.195943826E0,-2.819526803E0,-3.343439372E-1,5.066306529E0
1.215742104E1,4.209407625E0,-2.179886726E0,-1.191711667E0,4.887862047E0
1.216735104E1,4.513904888E0,-1.491877313E0,-1.032065138E0,4.864791229E0
1.217728104E1,4.893524255E0,-9.873549879E-1,-4.107376635E-1,5.009007380E0
1.218721104E1,5.329033647E0,-6.266107258E-1,1.780833115E-1,5.368701359E0
1.219714004E1,5.504352468E0,-4.335991073E-1,4.318080320E-1,5.538263488E0
1.220707004E1,4.609204563E0,-2.762506802E-1,4.992632294E-1,4.644388540E0
1.221700004E1,3.165194896E0,1.657093607E-1,3.245169604E-1,3.186099431E0
1.222693004E1,1.763694488E0,9.171454230E-1,8.500159521E-2,1.989723409E0
1.223686004E1,3.070302773E-1,1.697004216E0,-7.244817138E-2,1.726076371E0
1.224679004E1,-1.131011136E0,2.463932476E0,-2.498544484E-1,2.722604761E0
1.225672004E1,-2.498455607E0,3.149065937E0,-3.593850768E-1,4.035846172E0
1.226664904E1,-3.768371444E0,3.655314944E0,-2.587813926E-1,5.256321764E0
1.227657904E1,-4.990459396E0,4.063399434E0,1.743791735E-1,6.437880710E0
1.228650904E1,-6.225001917E0,4.514281741E0,9.411491203E-1,7.746944570E0
1.229643904E1,-7.437464182E0,5.042429448E0,1.945103769E0,9.193769460E0
1.230636904E1,-8.468010213E0,5.654789633E0,3.013277217E0,1.061902455E1
1.231629904E1,-9.227350103E0,6.363544675E0,3.922277176E0,1.187530838E1
1.232622904E1,-9.480543897E0,6.989534134E0,4.373629015E0,1.256435158E1
1.233615804E1,-9.243466784E0,7.288195292E0,4.189243501E0,1.249436793E1
1.234608804E1,-8.655203560E0,7.224403338E0,3.406918792E0,1.177759092E1
1.235601804E1,-7.998848341E0,6.961861017E0,2.184420365E0,1.082685439E1
1.236594804E1,-7.516147825E0,6.520490960E0,4.829799398E-1,9.962055516E0
1.237587804E1,-7.417835664E0,6.139437856E0,-1.656931054E0,9.770486357E0
1.238580804E1,-7.607381930E0,5.846399381E0,-4.104087576E0,1.043533327E1
1.239573804E1,-7.937891702E0,5.732062926E0,-6.341108324E0,1.166517573E1
1.240566804E1,-8.166197407E0,5.892312303E0,-8.214662054E0,1.299564531E1
1.241559704E1,-8.011436811E0,6.153393406E0,-9.331408322E0,1.375218352E1
1.242552704E1,-7.358125652E0,6.181768774E0,-9.455683874E0,1.348207090E1
1.243545704E1,-6.270627741E0,5.574293354E0,-8.582596344E0,1.200226973E1
1.244538704E1,-4.863332741E0,4.841684302E0,-7.174530682E0,9.928131886E0
1.245531704E1,-3.169428865E0,4.203092047E0,-5.709082199E0,7.765621781E0
1.246524700E1,-1.669473040E0,3.587912920E0,-4.241696534E0,5.801055838E0
1.247517700E1,-2.117884898E-1,3.041988800E0,-3.238818943E0,4.448426505E0
1.248510600E1,1.797183246E0,2.248456732E0,-3.000038536E0,4.157602255E0
1.249503600E1,3.618233072E0,2.807277471E-1,-2.399577436E0,4.350677017E0
1.250496600E1,4.079521084E0,-1.006225122E0,-1.723803028E0,4.541638268E0
1.251489600E1,5.624693429E0,-1.123805612E0,-1.777679712E0,6.005019599E0
1.252482600E1,7.163542010E0,-1.276515882E0,-1.817899931E0,7.500039138E0
1.253475600E1,9.353697324E0,-2.115105132E0,-1.254524211E0,9.671564214E0
1.254468600E1,1.199698028E1,-3.543661192E0,8.755035996E-3,1.250940235E1
1.255461500E1,1.465703304E1,-4.883053645E0,1.624900299E0,1.553425671E1
1.256454500E1,1.786883493E1,-6.018755418E0,3.460490981E0,1.917017674E1
1.257447500E1,2.132408914E1,-6.253196606E0,5.065088578E0,2.279198034E1
1.258440500E1,2.360336187E1,-6.084165881E0,6.453237455E0,2.521467905E1
1.259433500E1,2.325917371E1,-5.973201515E0,7.282793634E0,2.509397101E1
1.260426500E1,2.117078450E1,-6.166582970E0,7.452020241E0,2.327576997E1
1.261419500E1,1.807407804E1,-6.991679478E0,7.126095271E0,2.064793241E1
1.262412400E1,1.476755244E1,-8.049426756E0,6.797355452E0,1.814050488E1
1.263405400E1,1.162923485E1,-8.621007289E0,6.642139943E0,1.592730024E1
1.264398400E1,8.457863540E0,-8.373570664E0,6.644414510E0,1.363086151E1
1.265391400E1,5.130500211E0,-7.478353761E0,6.414872704E0,1.110848321E1
1.266384400E1,2.146098298E0,-6.323322263E0,5.710480853E0,8.786337913E0
1.267377400E1,-2.969502622E-1,-5.149828767E0,4.879868667E0,7.100847414E0
1.268370400E1,-2.228681449E0,-4.027832868E0,4.153970758E0,6.200478342E0
1.269363300E1,-3.843729190E0,-2.762486629E0,3.499876657E0,5.886826231E0
1.270356300E1,-5.505480396E0,-1.352688145E0,2.881625987E0,6.359547778E0
1.271349300E1,-7.184952174E0,-2.860136300E-2,2.142023374E0,7.497507581E0
1.272342300E1,-8.514745839E0,8.495141879E-1,1.329284956E0,8.659651814E0
1.273335300E1,-9.789551117E0,1.199663588E0,4.227454690E-1,9.871839623E0
1.274328300E1,-1.109547294E1,1.286452932E0,-6.479065776E-1,1.118857738E1
1.275321300E1,-1.244504773E1,1.354795481E0,-1.766002969E0,1.264252547E1
1.276314300E1,-1.355562227E1,1.392191057E0,-2.655346928E0,1.388322579E1
1.277307200E1,-1.416807484E1,1.277190943E0,-3.188680823E0,1.457852004E1
1.278300200E1,-1.438369793E1,1.234063050E0,-3.460802053E0,1.484556596E1
1.279293200E1,-1.410585111E1,1.466343984E0,-3.452677347E0,1.459610157E1
1.280286200E1,-1.338106183E1,1.934583166E0,-2.928514225E0,1.383371329E1
1.281279200E1,-1.233690465E1,2.440292183E0,-2.285392424E0,1.278191147E1
1.282272200E1,-1.111922199E1,2.985711981E0,-1.940445292E0,1.167548293E1
1.283265200E1,-1.006267105E1,3.569714631E0,-1.718713027E0,1.081453585E1
1.284258100E1,-9.031426279E0,4.033225462E0,-1.463756883E0,9.998807553E0
1.285251100E1,-8.016431503E0,4.261320959E0,-1.142793860E0,9.150300988E0
1.286244100E1,-7.278493007E0,4.260962817E0,-7.296062136E-1,8.465494068E0
1.287237100E1,-6.872664081E0,4.099315371E0,-5.732434809E-1,8.022873935E0
1.288230100E1,-6.174293693E0,3.529292829E0,-5.444284022E-1,7.132616124E0
1.289223100E1,-5.408865682E0,2.484602383E0,-4.998854828E-1,5.973186961E0
1.290216100E1,-4.982284403E0,1.518552603E0,-3.879300141E-1,5.222992397E0
1.291209000E1,-4.544487580E0,8.096990347E-1,-2.562249899E-1,4.623162461E0
1.292202000E1,-4.174756440E0,3.988651845E-1,-3.692364657E-1,4.209990539E0
1.293195000E1,-3.298395054E0,1.694099173E-1,-8.614229196E-1,3.413232939E0
1.294188000E1,-1.414274821E0,-5.454431865E-1,-1.655432705E0,2.244579912E0
1.295181000E1,1.028356833E0,-1.901672990E0,-2.666459561E0,3.432766308E0
1.296174000E1,3.789578125E0,-3.554619459E0,-3.710122651E0,6.384452361E0
1.297167000E1,6.165302430E0,-5.192157930E0,-4.473666689E0,9.218630683E0
1.298159900E1,8.047052786E0,-6.287130922E0,-4.414580575E0,1.112526833E1
1.299152900E1,9.590921786E0,-7.032079060E0,-3.309478451E0,1.234457631E1
1.300145900E1,1.070629279E1,-8.698095810E0,-2.097093369E0,1.395275516E1
1.301138900E1,1.199683059E1,-1.121361944E1,-1.129724164E0,1.646042168E1
1.302131900E1,1.273536199E1,-1.323225955E1,-1.386444998E-1,1.836576598E1
1.303124900E1,1.225156337E1,-1.365111081E1,1.130935707E0,1.837750382E1
1.304117900E1,1.146469771E1,-1.234281034E1,2.590722916E0,1.704394631E1
1.305110800E1,1.117038864E1,-1.052791529E1,3.734061736E0,1.579739851E1
1.306103800E1,1.066584526E1,-9.032246643E0,3.879748038E0,1.450497085E1
1.307096800E1,9.285556796E0,-7.885559122E0,2.901139900E0,1.252278804E1
1.308089800E1,7.508372782E0,-6.385275267E0,1.288935660E0,9.940259413E0
1.309082800E1,5.244622073E0,-5.164182512E0,1.309566537E-1,7.361520994E0
1.310075800E1,2.451045213E0,-4.961380023E0,-1.158304185E-1,5.535009580E0
1.311068800E1,1.107977784E0,-4.179263474E0,-8.051721203E-1,4.397972271E0
1.312061700E1,9.652127516E-1,-2.997840568E0,-2.108894219E0,3.790266291E0
1.313054700E1,7.681791258E-1,-1.823947706E0,-3.237618510E0,3.794609073E0
1.314047700E1,6.217502278E-1,-3.242988592E-1,-4.468477285E0,4.523166185E0
1.315040700E1,7.790105081E-1,1.412619474E0,-5.906948469E0,6.123266396E0
1.316033700E1,6.959361917E-1,3.278299343E0,-6.887749897E0,7.659808902E0
1.317026700E1,-1.104077107E-1,5.606384627E0,-6.836030690E0,8.841665796E0
1.318019700E1,-1.834103735E0,8.354368408E0,-6.509080703E0,1.074837381E1
1.319012600E1,-3.835852405E0,1.059191774E1,-5.706777227E0,1.262813492E1
1.320005600E1,-5.593230146E0,1.080544169E1,-4.206308016E0,1.287380366E1
1.320998600E1,-6.937512041E0,9.450788001E0,-2.321673812E0,1.195142822E1
1.321991600E1,-8.164211692E0,7.615004361E0,-5.472345175E-1,1.117775065E1
1.322984600E1,-8.656864754E0,6.218198681E0,1.544818003E0,1.077004015E1
1.323977600E1,-8.440183899E0,5.752810602E0,3.087933882E0,1.067084203E1
1.324970600E1,-8.065916489E0,5.881178620E0,4.000683076E0,1.075419620E1
1.325963600E1,-7.414247228E0,6.286984157E0,4.544446650E0,1.073076079E1
1.326956500E1,-6.264731408E0,6.888821692E0,5.044557835E0,1.059010329E1
1.327949500E1,-4.968417732E0,7.795953466E0,5.347397997E0,1.067973457E1
1.328942500E1,-4.052222773E0,8.618697054E0,3.353658843E0,1.009700332E1
1.329935500E1,-3.761110371E0,8.981874635E0,2.283404371E0,1.000169779E1
1.330928500E1,-3.128550396E0,9.050951301E0,1.138542935E0,9.643849183E0
1.331921500E1,-2.883697656E0,8.947094226E0,1.474153324E-1,9.401485976E0
1.332914500E1,-3.018626250E0,8.673920497E0,-6.077958477E-1,9.204260808E0
1.333907400E1,-3.296668956E0,8.026218572E0,-1.265740925E0,8.768712041E0
1.334900400E1,-3.323936861E0,6.823893040E0,-1.797831702E0,7.800401996E0
1.335893400E1,-2.879028654E0,5.170292267E0,-2.031537895E0,6.256826219E0
1.336886400E1,-2.107139470E0,3.238934718E0,-1.974698281E0,4.339374166E0
1.337879400E1,-5.837368941E-1,1.108397030E0,-1.860926667E0,2.243287944E0
1.338872400E1,1.491359249E0,-1.216993273E0,-1.658306612E0,2.540709715E0
1.339865400E1,3.644780016E0,-2.912322115E0,-1.150208715E0,4.805103699E0
1.340858300E1,5.198149572E0,-3.438280333E0,-6.294551039E-1,6.264083680E0
1.341851300E1,6.411954943E0,-3.501709759E0,1.044488132E-1,7.306575599E0
1.342844300E1,7.425718296E0,-3.725925336E0,9.093905532E-1,8.357679283E0
1.343837300E1,8.432174383E0,-4.780328007E0,1.591055446E0,9.822655349E0
1.344830300E1,9.415321130E0,-6.567794935E0,2.375358853E0,1.172290629E1
1.345823337E1,1.013234297E1,-8.292409557E0,1.725339092E0,1.320625705E1
1.346816337E1,1.093654328E1,-9.662296409E0,4.073451455E-1,1.459910548E1
1.347809237E1,1.219540671E1,-1.032274234E1,-4.095378149E-1,1.598294952E1
1.348802237E1,1.313253178E1,-1.038749207E1,-6.092670071E-1,1.675513618E1
1.349795237E1,1.300672893E1,-9.839165912E0,-2.905048398E-1,1.631160864E1
1.350788237E1,1.276482494E1,-9.270374501E0,6.818332922E-1,1.579067750E1
1.351781237E1,1.262366146E1,-8.719227648E0,2.306683306E0,1.551459143E1
1.352774237E1,1.230828370E1,-7.425778522E0,4.228860726E0,1.498396801E1
1.353767237E1,1.202193151E1,-6.518729194E0,5.565633627E0,1.476471962E1
1.354760137E1,1.139495095E1,-6.321430689E0,6.037330853E0,1.436157223E1
1.355753137E1,9.985966108E0,-6.540617661E0,6.351395330E0,1.352181279E1
1.356746137E1,7.289438995E0,-6.545581947E0,6.156534530E0,1.157080297E1
1.357739137E1,3.547804529E0,-6.442287959E0,5.368060888E0,9.105276977E0
1.358732137E1,-7.586177588E-3,-6.364256866E0,5.086001730E0,8.146854399E0
1.359725137E1,-3.182152991E0,-5.846059658E0,5.841678339E0,8.855942468E0
1.360718137E1,-5.949435507E0,-4.538735382E0,6.833464347E0,1.013371288E1
1.361711037E1,-8.256108288E0,-2.569610666E0,7.428185236E0,1.139930520E1
1.362704037E1,-1.012978422E1,-3.957769775E-1,7.582702587E0,1.265964243E1
1.363697037E1,-1.144510486E1,1.201587906E0,7.466941166E0,1.371821596E1
1.364690037E1,-1.233476925E1,2.060093065E0,6.844749473E0,1.425626568E1
1.365683037E1,-1.255986249E1,2.463756182E0,5.885764006E0,1.408767043E1
1.366676037E1,-1.236911813E1,2.470665253E0,4.928612226E0,1.354217444E1
1.367669037E1,-1.220433073E1,2.310426401E0,4.336444817E0,1.315631074E1
1.368662037E1,-1.210567300E1,2.273748863E0,4.016462080E0,1.295566364E1
1.369654937E1,-1.189017270E1,2.241768102E0,3.929109356E0,1.272162062E1
1.370647937E1,-1.146198226E1,2.150999727E0,3.752953798E0,1.225106116E1
1.371640937E1,-1.138729461E1,1.809582852E0,3.373510140E0,1.201356064E1
1.372633937E1,-1.107920365E1,1.432774242E0,3.153478538E0,1.160801544E1
1.373626937E1,-1.067875357E1,1.471034620E0,2.817793396E0,1.114179879E1
1.374619937E1,-1.020598982E1,1.643197114E0,2.239111420E0,1.057714256E1
1.375612937E1,-9.530334692E0,1.776052870E0,1.676292939E0,9.838272265E0
1.376605837E1,-8.784359783E0,2.077133021E0,1.231531351E0,9.110221065E0
1.377598837E1,-7.961760621E0,2.443154395E0,1.058569397E0,8.395189382E0
1.378591837E1,-6.141215410E0,2.599536131E0,2.632007182E0,7.169349804E0
1.379584837E1,-6.407284772E0,3.222183322E0,2.961135256E-1,7.177983472E0
1.380577837E1,-5.880591559E0,3.341354840E0,-1.095095783E0,6.851659947E0
1.381570837E1,-4.424194567E0,2.903053109E0,-7.187385786E-1,5.340205994E0
1.382563837E1,-3.698907107E0,2.022347242E0,-7.258767132E-1,4.277697880E0
1.383556737E1,-2.807810737E0,7.468704101E-1,-1.024613373E0,3.080819551E0
1.384549737E1,-1.274692428E0,-4.862038752E-1,-1.539827989E0,2.057256724E0
1.385542737E1,8.985065460E-1,-1.657100331E0,-2.356881652E0,3.017977243E0
1.386535737E1,3.299500762E0,-2.600123484E0,-2.924774930E0,5.118755299E0
1.387528737E1,5.960069253E0,-3.689721423E0,-3.617638410E0,7.888204951E0
1.388521737E1,9.099846888E0,-5.549860178E0,-4.655753077E0,1.163117355E1
1.389514737E1,1.148913790E1,-7.571558964E0,-5.549563140E0,1.483665885E1
1.390507737E1,1.344492161E1,-9.391465659E0,-5.877620004E0,1.742159468E1
1.391500637E1,1.458361423E1,-1.065508404E1,-5.376940470E0,1.884473690E1
1.392493637E1,1.555163248E1,-1.169992769E1,-5.025442117E0,2.009966789E1
1.393486637E1,1.700018543E1,-1.264342154E1,-4.250415902E0,2.160852721E1
1.394479637E1,1.723819985E1,-1.232599842E1,-3.914271169E0,2.155011114E1
1.395472637E1,1.690626044E1,-1.151580822E1,-2.998869678E0,2.067434885E1
1.396465637E1,1.601703108E1,-9.926027470E0,-1.469524577E0,1.890055048E1
1.397458637E1,1.491356209E1,-8.393169946E0,-5.734188974E-1,1.712274642E1
1.398451537E1,1.245078853E1,-6.973862427E0,8.032787919E-2,1.427106670E1
1.399444537E1,9.304222863E0,-5.742507223E0,3.343298308E-1,1.093877181E1
1.400437537E1,5.995028002E0,-4.167535713E0,1.436519822E-1,7.302694746E0
1.401430537E1,3.194356715E0,-2.658194814E0,7.031854235E-2,4.156303549E0
1.402423537E1,7.497475326E-1,-9.092353097E-1,3.140387499E-1,1.219610818E0
1.403416537E1,-1.224033905E0,1.067039673E0,6.801516330E-1,1.760522340E0
1.404409537E1,-3.108722488E0,2.861838425E0,9.686497450E-1,4.335038293E0
1.405402437E1,-5.267874110E0,4.522278101E0,1.004810096E0,7.015065231E0
1.406395437E1,-7.336586848E0,5.959731284E0,6.969945377E-1,9.477853394E0
1.407388437E1,-8.870469389E0,6.927943658E0,2.828859361E-1,1.125884785E1
1.408381437E1,-1.009672407E1,7.585921479E0,-6.955906212E-2,1.262912824E1
1.409374437E1,-1.094803423E1,7.946468398E0,-4.603676605E-1,1.353579520E1
1.410367437E1,-1.119883534E1,7.842120157E0,-7.659870046E-1,1.369304559E1
1.411360437E1,-1.088691445E1,7.289785734E0,-7.319889539E-1,1.312256416E1
1.412353337E1,-1.018148414E1,6.456464533E0,-2.929256419E-1,1.205961686E1
1.413346337E1,-9.494953775E0,5.671279950E0,4.229179253E-1,1.106781022E1
1.414339337E1,-9.016308888E0,5.233631646E0,1.092923543E0,1.048232837E1
1.415332337E1,-8.468283278E0,5.072181251E0,1.630117770E0,1.000480526E1
1.416325337E1,-7.833054634E0,5.096464738E0,2.145438733E0,9.588201347E0
1.417318337E1,-7.168519160E0,5.289156221E0,2.581888357E0,9.275181290E0
1.418311337E1,-6.530081563E0,5.606168280E0,2.838724381E0,9.062529675E0
1.419304337E1,-5.977830756E0,5.924046312E0,2.897201800E0,8.900705788E0
1.420297237E1,-5.624171857E0,6.173255228E0,2.781643862E0,8.802154950E0
1.421290237E1,-5.520450438E0,6.290582533E0,2.500253041E0,8.734876468E0
1.422283237E1,-5.430999148E0,6.166753124E0,2.061575042E0,8.471994304E0
1.423276237E1,-5.638202251E0,5.843201539E0,1.539634447E0,8.264550991E0
1.424269237E1,-6.006729450E0,5.599134665E0,1.010739173E0,8.273614769E0
1.425262237E1,-6.219799064E0,5.346326787E0,5.110144883E-1,8.217678889E0
1.426255237E1,-6.398665391E0,4.920681063E0,3.909972807E-2,8.072022652E0
1.427248137E1,-6.189505225E0,4.276419932E0,-4.208340508E-1,7.534908338E0
1.428241137E1,-5.678567920E0,3.403467765E0,-7.916404939E-1,6.667564857E0
1.429234137E1,-4.612776042E0,2.351002277E0,-1.181932783E0,5.310544193E0
1.430227137E1,-2.284976687E0,6.346909931E-1,-1.634659302E0,2.880288553E0
1.431220137E1,1.108058476E0,-2.129621429E0,-1.674143211E0,2.926745036E0
1.432213137E1,5.036557090E0,-5.394716005E0,-1.294055482E0,7.492959875E0
1.433206137E1,9.283326668E0,-8.183530893E0,-1.076302832E0,1.242210770E1
1.434199037E1,1.286796983E1,-9.650621274E0,-9.654431319E-1,1.611369662E1
1.435192037E1,1.496554150E1,-9.905590281E0,-8.860087073E-1,1.796867170E1
1.436185037E1,1.684467522E1,-1.050241792E1,-1.203817815E0,1.988700689E1
1.437178037E1,1.857570132E1,-1.186893093E1,-1.592385103E0,2.210121922E1
1.438171037E1,1.942445040E1,-1.273841658E1,-1.856243925E0,2.330283613E1
1.439164037E1,1.915414297E1,-1.203897147E1,-2.081733757E0,2.271897098E1
1.440157037E1,1.867798900E1,-1.058158571E1,-2.056090208E0,2.156535964E1
1.441149937E1,1.778325391E1,-9.259461257E0,-1.639954687E0,2.011644088E1
1.442142937E1,1.562436015E1,-8.564507398E0,-1.201602817E0,1.785819885E1
1.443135937E1,1.210239856E1,-8.057716938E0,-5.216688462E-1,1.454877973E1
1.444128937E1,7.994569933E0,-7.468316431E0,3.903555123E-1,1.094720403E1
1.445121937E1,3.976923500E0,-6.586262780E0,1.194967469E0,7.786059670E0
1.446114962E1,3.824570203E-1,-5.217151269E0,1.735114321E0,5.511402947E0
1.447107962E1,-2.264663460E0,-3.649289096E0,2.064329081E0,4.765235151E0
1.448100862E1,-4.072770474E0,-1.958815197E0,2.120771084E0,4.992202550E0
1.449093862E1,-5.394510768E0,-4.506130430E-1,1.771304054E0,5.695727925E0
1.450086862E1,-6.219091551E0,5.646188378E-1,1.134359837E0,6.346862721E0
1.451079862E1,-6.926179553E0,1.410416535E0,2.137344432E-1,7.071557142E0
1.452072862E1,-7.576419754E0,2.248447376E0,-9.050174206E-1,7.954665827E0
1.453065862E1,-8.039342648E0,3.004351442E0,-2.002184288E0,8.812825865E0
1.454058862E1,-8.348455703E0,3.539739757E0,-2.957899992E0,9.538115251E0
1.455051862E1,-8.711498213E0,3.853465681E0,-3.489056969E0,1.014460041E1
1.456044762E1,-9.483635904E0,4.118167672E0,-3.657154478E0,1.096692454E1
1.457037762E1,-9.999174968E0,4.334457348E0,-3.649320964E0,1.149297890E1
1.458030762E1,-1.043059306E1,4.539290575E0,-3.322165740E0,1.185070529E1
1.459023762E1,-1.055360679E1,4.804840412E0,-2.976818658E0,1.197190699E1
1.460016762E1,-1.029199534E1,5.093245261E0,-2.700305584E0,1.179652346E1
1.461009762E1,-9.739268571E0,5.376983154E0,-2.452237460E0,1.139204849E1
1.462002762E1,-8.886236991E0,5.657322646E0,-2.317775327E0,1.078622222E1
1.462995662E1,-7.935905403E0,6.030141701E0,-2.263655984E0,1.022082883E1
1.463988662E1,-7.217335809E0,6.479324223E0,-2.174261997E0,9.939768297E0
1.464981662E1,-6.778995194E0,6.877994987E0,-2.182787676E0,9.900815771E0
1.465974662E1,-6.524685752E0,7.109410826E0,-2.230357992E0,9.904026617E0
1.466967662E1,-6.284838814E0,7.173681082E0,-2.330198029E0,9.817877674E0
1.467960662E1,-6.111981086E0,7.031562166E0,-2.384042699E0,9.616799825E0
1.468953662E1,-5.980581286E0,6.768362033E0,-2.430174746E0,9.353278913E0
1.469946562E1,-5.693626839E0,6.522878963E0,-2.427614981E0,8.992143851E0
1.470939562E1,-5.066283165E0,6.236482340E0,-2.366595047E0,8.376258663E0
1.471932562E1,-3.945761349E0,5.755971022E0,-2.314520913E0,7.352363027E0
1.472925562E1,-2.433566716E0,5.041475183E0,-2.262004731E0,6.037829443E0
1.473918562E1,-3.685956109E-1,3.931334221E0,-2.264548854E0,4.551860388E0
1.474911562E1,2.184994562E0,2.291159533E0,-2.110054307E0,3.804726326E0
1.475904562E1,4.810608398E0,6.996836722E-2,-1.784149218E0,5.131280265E0
1.476897562E1,6.883980197E0,-2.581412686E0,-1.343595432E0,7.473829239E0
1.477890462E1,8.041499101E0,-4.710766606E0,-7.589359204E-1,9.350562204E0
1.478883462E1,9.097030284E0,-6.054713455E0,-1.465500084E-1,1.092872325E1
1.479876462E1,1.006502748E1,-6.922035631E0,3.660275137E-1,1.222102007E1
1.480869462E1,1.158403470E1,-7.921231230E0,4.786390400E-1,1.404154050E1
1.481862462E1,1.413437499E1,-9.680858980E0,2.382529879E-1,1.713348626E1
1.482855462E1,1.612979581E1,-1.103514838E1,4.456214212E-1,1.954848821E1
1.483848462E1,1.789828267E1,-1.157899323E1,1.542047300E0,2.137286871E1
1.484841362E1,1.899749607E1,-1.102630856E1,3.045847378E0,2.217569669E1
1.485834362E1,1.912568107E1,-9.825827243E0,4.109248914E0,2.189119649E1
1.486827362E1,1.830071144E1,-8.772903918E0,4.323630059E0,2.075026890E1
1.487820362E1,1.630854285E1,-7.600940638E0,4.381649056E0,1.851868562E1
1.488813362E1,1.339755449E1,-6.282380644E0,4.402658687E0,1.543846418E1
1.489806362E1,1.028356717E1,-5.021609852E0,4.221811323E0,1.219803304E1
1.490799362E1,7.528305940E0,-4.001045603E0,3.893947417E0,9.372650784E0
1.491792262E1,5.101601517E0,-3.271195268E0,3.377931805E0,6.938117886E0
1.492785262E1,2.730304724E0,-2.615155506E0,2.752209563E0,4.676351108E0
1.493778262E1,3.085154700E-1,-1.807884235E0,1.988340859E0,2.705018775E0
1.494771262E1,-2.060279884E0,-8.528599647E-1,1.121882025E0,2.496145548E0
1.495764262E1,-4.048208660E0,1.427936840E-1,3.196649408E-1,4.063319956E0
1.496757262E1,-5.583429043E0,1.045386557E0,-3.298109563E-1,5.690016538E0
1.497750262E1,-6.779866430E0,1.784599161E0,-8.499126756E-1,7.062133851E0
1.498743262E1,-7.994797974E0,2.443040375E0,-1.212040097E0,8.447146389E0
1.499736162E1,-9.321025422E0,3.052312644E0,-1.592765172E0,9.936550120E0
1.500729162E1,-1.064212662E1,3.623682970E0,-2.079488572E0,1.143285659E1
1.501722162E1,-1.198841527E1,4.115198748E0,-2.461883612E0,1.291192598E1
1.502715162E1,-1.299255879E1,4.338001345E0,-2.637587180E0,1.394925466E1
1.503708162E1,-1.349283720E1,4.321089444E0,-2.679039845E0,1.441893631E1
1.504701162E1,-1.355741151E1,4.227645383E0,-2.607300941E0,1.443864296E1
1.505694162E1,-1.314750649E1,4.016987452E0,-2.198740196E0,1.392219716E1
1.506687062E1,-1.263023373E1,3.861212072E0,-1.654501829E0,1.331048981E1
1.507680062E1,-1.202771558E1,4.055666199E0,-1.180826490E0,1.274789087E1
1.508673062E1,-1.089428662E1,4.388754008E0,-7.018699461E-1,1.176602159E1
1.509666062E1,-9.346918062E0,4.770227526E0,-3.385929626E-1,1.049926631E1
1.510659062E1,-8.077668808E0,5.263003964E0,1.237095416E-2,9.640959347E0
1.511652062E1,-7.246136854E0,5.773324388E0,3.240994692E-1,9.270534735E0
1.512645062E1,-6.682048944E0,6.061855245E0,3.976328838E-1,9.030724168E0
1.513637962E1,-6.227404538E0,6.101087723E0,3.830721474E-1,8.726430138E0
1.514630962E1,-5.755568148E0,5.940424948E0,1.826962348E-1,8.273366376E0
1.515623962E1,-5.233219417E0,5.565185730E0,-7.067997336E-2,7.639559761E0
1.516616962E1,-4.589820458E0,4.991930555E0,-3.721296680E-1,6.791487539E0
1.517609962E1,-3.727190089E0,4.165112920E0,-3.131341857E-1,5.598050072E0
1.518602962E1,-2.238486645E0,3.333326612E0,1.895404007E-1,4.019678386E0
1.519595962E1,-5.494833201E-1,2.606349892E0,6.916899437E-1,2.751985948E0
1.520588862E1,9.852195847E-1,1.763412652E0,8.360705620E-1,2.186160057E0
1.521581862E1,2.754558975E0,3.988923740E-1,3.147912866E-1,2.801036205E0
1.522574862E1,4.566925685E0,-1.202134621E0,-1.499378212E-1,4.724872402E0
1.523567862E1,6.111526172E0,-2.174912208E0,-3.207490146E-1,6.494911485E0
1.524560862E1,8.076058484E0,-2.205449876E0,-4.522190539E-1,8.383986634E0
1.525553862E1,1.098150135E1,-2.026487947E0,-4.537134560E-1,1.117612997E1
1.526546862E1,1.468408460E1,-2.509110403E0,-5.670933064E-1,1.490770171E1
1.527539862E1,1.882867175E1,-4.063007086E0,-1.107525795E0,1.929387260E1
1.528532762E1,2.204310254E1,-5.857050669E0,-1.913329122E0,2.288808075E1
1.529525762E1,2.430481257E1,-7.059165702E0,-2.442324529E0,2.542677100E1
1.530518762E1,2.486622479E1,-8.016366014E0,-2.763452297E0,2.627218925E1
1.531511762E1,2.250344915E1,-9.192724646E0,-2.748768769E0,2.446358804E1
1.532504762E1,1.775466804E1,-1.083091333E1,-2.773440803E0,2.098163232E1
1.533497762E1,1.229942751E1,-1.232907991E1,-2.560882820E0,1.760227966E1
1.534490762E1,6.898964857E0,-1.250278314E1,-1.967087545E0,1.441474023E1
1.535483662E1,2.234253260E0,-1.172892637E1,-1.430497921E0,1.202522040E1
1.536476662E1,-1.251377825E0,-1.035762683E1,-1.029778949E0,1.048364558E1
1.537469662E1,-3.218737850E0,-8.507600541E0,-7.413602865E-1,9.126289245E0
1.538462662E1,-3.732482988E0,-6.610850907E0,-5.906810109E-1,7.614701769E0
1.539455662E1,-3.390449524E0,-4.911819023E0,-5.551054180E-1,5.994101777E0
1.540448662E1,-2.879380656E0,-3.549852224E0,-6.177817225E-1,4.612367942E0
1.541441662E1,-2.441194993E0,-2.493444835E0,-7.031791377E-1,3.559657433E0
1.542434662E1,-2.511406020E0,-1.419891364E0,-8.244714403E-1,3.000500764E0
1.543427562E1,-3.348325013E0,-2.339880288E-1,-9.738607105E-1,3.494915660E0
1.544420562E1,-4.823150675E0,9.170638543E-1,-1.145383008E0,5.041397701E0
1.545413562E1,-6.593519175E0,1.937052445E0,-1.491521802E0,7.032162155E0
1.546406542E1,-8.255782013E0,2.837403788E0,-1.985701572E0,8.952754193E0
1.547399542E1,-9.769943649E0,3.557919335E0,-2.499511614E0,1.069383688E1
1.548392542E1,-1.145859556E1,4.275309253E0,-3.071794397E0,1.261005956E1
1.549385542E1,-1.275008996E1,4.751862299E0,-3.684434078E0,1.409680970E1
1.550378442E1,-1.330588067E1,4.874997644E0,-3.820066677E0,1.467668123E1
1.551371442E1,-1.310156492E1,4.812283333E0,-2.884888734E0,1.425242636E1
1.552364442E1,-1.228587249E1,4.892903573E0,-1.046664539E0,1.326569542E1
1.553357442E1,-1.132566846E1,5.182066805E0,7.926473844E-1,1.248009905E1
1.554350442E1,-1.059843154E1,5.312488950E0,1.616837574E0,1.196509314E1
1.555343442E1,-1.000609456E1,5.077553673E0,1.041780871E0,1.126893017E1
1.556336442E1,-9.699148486E0,4.592959828E0,-4.793196924E-1,1.074236979E1
1.557329342E1,-9.453937896E0,4.222141691E0,-2.201480201E0,1.058536430E1
1.558322342E1,-9.538947641E0,4.243258325E0,-3.861795917E0,1.113149725E1
1.559315342E1,-9.489913475E0,4.401537775E0,-5.286353066E0,1.172081573E1
1.560308342E1,-9.223172852E0,4.618290259E0,-6.235371954E0,1.205302393E1
1.561301342E1,-8.699282795E0,4.827828155E0,-6.661108310E0,1.197312865E1
1.562294342E1,-7.447346562E0,4.938855379E0,-6.673735957E0,1.115320648E1
1.563287342E1,-5.718968087E0,4.876054236E0,-6.230169686E0,9.762044622E0
1.564280342E1,-3.888671474E0,4.535210388E0,-5.647509849E0,8.220965064E0
1.565273242E1,-2.097472853E0,3.764469012E0,-4.997278419E0,6.598743131E0
1.566266242E1,-1.202438968E-1,2.479520276E0,-4.351700202E0,5.009967469E0
1.567259242E1,2.228010773E0,6.204088765E-1,-4.009819350E0,4.628994535E0
1.568252242E1,5.105434366E0,-1.814611165E0,-3.545714149E0,6.475365826E0
1.569245242E1,8.279470253E0,-4.424052479E0,-2.609401846E0,9.743246174E0
1.570238242E1,1.118944939E1,-6.270047697E0,-1.166764009E0,1.287938717E1
1.571231242E1,1.315775316E1,-6.911807681E0,7.537435929E-1,1.488179031E1
1.572224142E1,1.468015527E1,-7.052443743E0,2.812798412E0,1.652742438E1
1.573217142E1,1.617569294E1,-7.185750904E0,4.890611464E0,1.836317344E1
1.574210142E1,1.736470904E1,-7.964363801E0,6.259039729E0,2.010322833E1
1.575203142E1,1.881147976E1,-9.537876431E0,6.877553523E0,2.218430977E1
1.576196142E1,1.954923700E1,-1.032819195E1,7.307377667E0,2.328608993E1
1.577189142E1,1.935640284E1,-1.010532766E1,7.044477496E0,2.294368413E1
1.578182142E1,1.900441098E1,-1.004039901E1,5.967310445E0,2.230663675E1
1.579175042E1,1.782322664E1,-1.013020405E1,3.959245613E0,2.087975258E1
1.580168042E1,1.558494407E1,-1.026680437E1,1.470938580E0,1.872061467E1
1.581161042E1,1.227051302E1,-1.016400213E1,-2.616487209E-1,1.593552287E1
1.582154042E1,8.867565077E0,-9.483152924E0,-2.331985085E-1,1.298531021E1
1.583147042E1,6.113161638E0,-8.629471718E0,1.045636525E0,1.062694138E1
1.584140042E1,3.242696232E0,-8.051851012E0,2.155186626E0,8.943836590E0
1.585133042E1,2.371197975E-1,-7.318597305E0,2.727196052E0,7.813814089E0
1.586126042E1,-2.466123428E0,-6.046831409E0,2.999209986E0,7.186180862E0
1.587118942E1,-4.749289232E0,-4.286196769E0,3.171682967E0,7.140504449E0
1.588111942E1,-6.607036183E0,-2.254539298E0,3.285782025E0,7.715713712E0
1.589104942E1,-8.070574965E0,-2.277265379E-1,3.336355762E0,8.735977874E0
1.590097942E1,-9.002929873E0,1.576526577E0,3.213876475E0,9.688507850E0
1.591090942E1,-9.439447911E0,2.961421770E0,2.923394988E0,1.031597955E1
1.592083942E1,-9.688108943E0,4.009012434E0,2.480682410E0,1.077429445E1
1.593076942E1,-1.008295738E1,4.810600796E0,2.038134724E0,1.135613943E1
1.594069842E1,-1.049102521E1,5.597203914E0,1.569221942E0,1.199386339E1
1.595062842E1,-1.056063982E1,6.212837954E0,8.675467086E-1,1.228328564E1
1.596055842E1,-1.046431980E1,6.383819311E0,8.277391568E-3,1.225786305E1
1.597048842E1,-1.019583905E1,6.193976591E0,-8.917752314E-1,1.196309922E1
1.598041842E1,-9.996382338E0,5.820076386E0,-1.764929420E0,1.170110785E1
1.599034842E1,-9.821121404E0,5.522968833E0,-2.392183632E0,1.151868712E1
1.600027842E1,-9.751778689E0,5.439032053E0,-2.593088114E0,1.146317422E1
1.601020742E1,-9.756662284E0,5.497249271E0,-2.616819624E0,1.150043275E1
1.602013742E1,-9.580530699E0,5.549538581E0,-2.562215985E0,1.136436966E1
1.603006742E1,-9.193837371E0,5.521362603E0,-2.295482964E0,1.096728465E1
1.603999742E1,-8.784787799E0,5.516678984E0,-1.862456299E0,1.053921188E1
1.604992742E1,-8.233444480E0,5.515113099E0,-1.459421757E0,1.001678553E1
1.605985742E1,-7.505317027E0,5.315920097E0,-1.196319273E0,9.274695141E0
1.606978742E1,-6.894122193E0,5.078483965E0,-9.006308395E-1,8.609939378E0
1.607971742E1,-6.432951125E0,5.209852774E0,-5.761378527E-1,8.298033558E0
1.608964642E1,-5.848684473E0,5.340086054E0,-4.778075659E-1,7.934225180E0
1.609957642E1,-4.766847836E0,5.092074648E0,-5.226720822E-1,6.994658578E0
1.610950642E1,-3.441648914E0,4.439062282E0,-7.422268438E-1,5.665785195E0
1.611943642E1,-2.737693266E0,3.750171400E0,-9.351381826E-1,4.736373441E0
1.612936642E1,-2.215067961E0,3.166235701E0,-1.322944236E0,4.084330549E0
1.613929642E1,-1.208273905E0,2.201824602E0,-1.961314005E0,3.186645577E0
1.614922642E1,1.708497941E-1,1.834675008E-1,-2.686496215E0,2.698168247E0
1.615915542E1,1.644656287E0,-2.877143512E0,-2.929152156E0,4.422983319E0
1.616908542E1,3.550459750E0,-6.138832085E0,-2.355208179E0,7.472484818E0
1.617901542E1,5.509980998E0,-8.221799165E0,-9.295413740E-1,9.940921450E0
1.618894542E1,7.384101323E0,-8.638361240E0,6.220092595E-1,1.138126235E1
1.619887542E1,9.503086667E0,-8.383920820E0,1.664224871E0,1.278156598E1
1.620880542E1,1.174274568E1,-8.470059662E0,1.787346475E0,1.458864607E1
1.621873542E1,1.414272833E1,-8.861424331E0,9.832370862E-1,1.671850355E1
1.622866442E1,1.596262742E1,-9.246536572E0,-7.466078702E-1,1.846243039E1
1.623859442E1,1.678354726E1,-1.006781777E1,-2.597536968E0,1.974324218E1
1.624852442E1,1.615410502E1,-1.065328544E1,-3.907111838E0,1.974115302E1
1.625845442E1,1.419630636E1,-1.074659063E1,-4.450100656E0,1.835286682E1
1.626838442E1,1.147405326E1,-1.033414909E1,-4.349872363E0,1.604275304E1
1.627831442E1,8.683929761E0,-9.594085130E0,-3.898861417E0,1.351511102E1
1.628824442E1,6.124350286E0,-8.759368783E0,-3.436557158E0,1.122693783E1
1.629817442E1,3.733366503E0,-7.818599732E0,-3.168780409E0,9.225491667E0
1.630810342E1,1.783242899E0,-6.836710721E0,-3.038852938E0,7.691241506E0
1.631803342E1,3.201391500E-1,-5.753551444E0,-3.006041873E0,6.499394667E0
1.632796342E1,-7.018091351E-1,-4.411128086E0,-2.784724760E0,5.263580440E0
1.633789342E1,-1.175818934E0,-2.882032954E0,-2.474076226E0,3.976143519E0
1.634782342E1,-1.357999463E0,-1.468091424E0,-2.132559071E0,2.923570276E0
1.635775342E1,-1.748740234E0,-9.573997021E-2,-1.591134968E0,2.366214072E0
1.636768342E1,-2.571627079E0,1.477831716E0,-8.264746964E-1,3.079011665E0
1.637761242E1,-3.658864789E0,3.039661608E0,2.184519768E-3,4.756767706E0
1.638754242E1,-4.838737598E0,4.365454023E0,9.003437412E-1,6.578844064E0
1.639747242E1,-5.923779679E0,5.884464170E0,1.914590074E0,8.566430961E0
1.640740242E1,-6.698875476E0,7.565474351E0,2.670744985E0,1.045199567E1
1.641733242E1,-7.214787592E0,9.076045212E0,2.815541925E0,1.193126284E1
1.642726242E1,-7.218478940E0,1.014490395E1,2.364618688E0,1.267347371E1
1.643719242E1,-6.795912359E0,1.052033613E1,1.448197442E0,1.260790121E1
1.644712142E1,-5.997208428E0,1.015738191E1,3.952741170E-1,1.180233697E1
1.645705142E1,-4.928723908E0,9.519624932E0,-4.162246907E-1,1.072794581E1
1.646698112E1,-4.149573652E0,9.191201447E0,-1.067760050E0,1.014087063E1
1.647691112E1,-3.673531945E0,9.149116112E0,-1.681179750E0,1.000137630E1
