"Time (s)","Linear Acceleration x (m/s^2)","Linear Acceleration y (m/s^2)","Linear Acceleration z (m/s^2)","Absolute acceleration (m/s^2)"
2.013583318E-3,-9.949189460E-1,2.047633526E0,3.558532854E-1,2.304191469E0
1.204058330E-2,-1.126957262E0,1.501935108E0,5.538542600E-1,1.957701785E0
2.206758334E-2,-1.139794239E0,1.317154908E0,7.159962344E-1,1.883262745E0
3.209358332E-2,-8.358390123E-1,1.226392087E0,8.792569274E-1,1.725038304E0
4.212058330E-2,-3.778336269E-1,1.008887359E0,7.032972515E-1,1.286560911E0
5.214758334E-2,4.587707859E-1,5.177229989E-1,1.447736974E-1,7.067299067E-1
6.217358331E-2,1.479605761E0,-2.332945490E-1,-3.739977072E-1,1.543869761E0
7.220058329E-2,2.399917159E0,-1.147636524E0,-8.418246607E-1,2.790222343E0
8.222758333E-2,3.189506450E0,-1.925460048E0,-1.258873955E0,3.932570587E0
9.225358331E-2,3.766406195E0,-2.359306492E0,-1.449508388E0,4.674742486E0
1.022805833E-1,3.992535565E0,-2.570326073E0,-1.489837804E0,4.976598542E0
1.123075833E-1,3.874943966E0,-2.668880308E0,-1.407560609E0,4.911144439E0
1.223335833E-1,3.629300097E0,-2.729166856E0,-1.373399860E0,4.744090861E0
1.323605833E-1,3.414113790E0,-2.793300287E0,-1.450355065E0,4.643514755E0
1.423875833E-1,3.361823310E0,-2.821948720E0,-1.591340790E0,4.668791713E0
1.524135833E-1,3.327403091E0,-2.778934262E0,-1.770637325E0,4.682867017E0
1.624405833E-1,3.356573680E0,-2.712148535E0,-1.736170036E0,4.651518347E0
1.724665833E-1,3.417388816E0,-2.628733326E0,-1.716011175E0,4.640418038E0
1.824935833E-1,3.328492427E0,-2.433089583E0,-1.720891846E0,4.467690175E0
1.925205833E-1,3.067289702E0,-2.217544257E0,-1.629036473E0,4.120622342E0
2.025465833E-1,2.558528146E0,-1.890885462E0,-1.557143349E0,3.542062889E0
2.125735833E-1,1.863103586E0,-1.233048558E0,-1.165473456E0,2.519899223E0
2.226005833E-1,1.238560728E0,-9.221105862E-1,-1.183602163E0,1.945567961E0
2.326265833E-1,5.766027063E-1,-1.268234763E0,-1.477638904E0,2.030838946E0
2.426535833E-1,2.813341033E-1,-1.538795371E0,-1.462433074E0,2.141436566E0
2.526805833E-1,1.749124396E-1,-1.436524061E0,-1.176101428E0,1.864781571E0
2.627065833E-1,-2.050267696E-1,-1.153863224E0,-1.008766980E0,1.546301114E0
2.727335833E-1,-4.912690258E-1,-9.042233688E-1,-1.145517055E0,1.539861838E0
2.827605833E-1,-5.605538535E-1,-7.061781746E-1,-1.625879123E0,1.859137209E0
2.927865833E-1,-6.726163262E-1,-5.010186732E-1,-2.107169291E0,2.267949482E0
3.028135833E-1,-8.813233334E-1,-2.005577427E-1,-2.584703207E0,2.738182772E0
3.128405833E-1,-9.756365830E-1,2.553075618E-1,-3.046201134E0,3.208798848E0
3.228665833E-1,-1.093578431E0,9.482347763E-1,-3.152505269E0,3.468912286E0
3.328935833E-1,-1.257858878E0,1.898412582E0,-2.730744435E0,3.555719963E0
3.429195833E-1,-1.424871145E0,2.900389118E0,-1.942884166E0,3.770585325E0
3.529465833E-1,-1.842383977E0,3.652301874E0,-1.017737705E0,4.215385835E0
3.629735833E-1,-2.362062285E0,3.864991420E0,-2.696466887E-1,4.537643249E0
3.729995833E-1,-2.970663879E0,3.348322674E0,-5.721003503E-1,4.512583232E0
3.830265833E-1,-3.339032033E0,2.216403465E0,-1.801454637E0,4.393952440E0
3.930535833E-1,-3.970203295E0,1.083971456E0,-3.189716365E0,5.206899155E0
4.030795833E-1,-5.503686470E0,1.185824105E0,-4.249994903E0,7.054020148E0
4.131065833E-1,-6.891157655E0,2.270093769E0,-4.460577112E0,8.516931825E0
4.231335833E-1,-7.313987360E0,2.930194130E0,-3.802698108E0,8.748769150E0
4.331595833E-1,-6.403007534E0,3.223912051E0,-2.264268773E0,7.517913771E0
4.431865833E-1,-4.026191554E0,3.718858976E0,-4.954193795E-1,5.503232766E0
4.532135833E-1,-2.150530488E0,4.358830882E0,5.956464299E-1,4.896833947E0
4.632395833E-1,-1.327971087E0,4.597085039E0,9.839225992E-1,4.885161384E0
4.732665833E-1,-5.632786560E-1,3.787440383E0,1.057208677E0,3.972364244E0
4.832925833E-1,9.207668960E-2,2.510907837E0,9.988599694E-1,2.703859745E0
4.933195833E-1,1.365172827E-1,1.947226308E0,1.369643024E0,2.384585766E0
5.033465833E-1,1.656983972E-1,1.847098587E0,2.227364656E0,2.898341329E0
5.133725833E-1,5.242338735E-1,1.679601002E0,2.717942541E0,3.237760389E0
5.233995833E-1,9.400311327E-1,1.384114298E0,2.853604376E0,3.307943296E0
5.334265833E-1,1.376979525E0,8.574140686E-1,2.754640251E0,3.196759986E0
5.434525833E-1,1.569095058E0,2.432535267E-1,2.784784402E0,3.205659954E0
5.534795833E-1,1.354101124E0,-2.293774992E-1,2.906821055E0,3.214935853E0
5.635065833E-1,8.161683941E-1,-6.593419772E-1,2.967515153E0,3.147540131E0
5.735325833E-1,3.802935505E-1,-1.037032932E0,2.952251582E0,3.152118317E0
5.835595833E-1,2.862118506E-1,-1.270101779E0,2.843697438E0,3.127569483E0
5.935865833E-1,4.830840933E-1,-1.307266096E0,2.576036464E0,2.928869876E0
6.036125833E-1,7.918621033E-1,-1.141002274E0,2.130192556E0,2.542961287E0
6.136395833E-1,1.210616884E0,-9.233361626E-1,1.692241513E0,2.276362064E0
6.236665833E-1,1.704543470E0,-9.189267772E-1,1.308072574E0,2.336867288E0
6.336925833E-1,2.166157756E0,-1.014107754E0,9.989937244E-1,2.592034418E0
6.437195833E-1,2.647684736E0,-1.170091002E0,5.686488850E-1,2.950035418E0
6.537455833E-1,3.036285426E0,-1.446817499E0,2.180324391E-2,3.363448446E0
6.637725833E-1,3.404102772E0,-1.793105398E0,-4.047748192E-1,3.868718820E0
6.737995833E-1,3.742708599E0,-2.061092062E0,-7.204570752E-1,4.333015871E0
6.838255833E-1,4.000392469E0,-2.165417499E0,-8.817579277E-1,4.633537514E0
6.938525833E-1,4.060855018E0,-2.179967710E0,-9.782714845E-1,4.711668260E0
7.038795833E-1,3.933701466E0,-2.180868182E0,-1.022701991E0,4.612603670E0
7.139055833E-1,3.580523794E0,-2.124066575E0,-9.851238365E-1,4.278116224E0
7.239325833E-1,3.046438531E0,-2.175082946E0,-8.868629855E-1,3.846855795E0
7.339595833E-1,2.341478916E0,-2.198292884E0,-6.578130765E-1,3.278373555E0
7.439855833E-1,1.675114433E0,-2.214128898E0,-4.168621834E-1,2.807516558E0
7.540125833E-1,1.220932542E0,-2.286613322E0,-1.989028345E-1,2.599776740E0
7.640395833E-1,7.942465979E-1,-2.309146737E0,-3.726138175E-2,2.442206937E0
7.740655833E-1,4.924963564E-1,-2.232308477E0,-8.877535164E-4,2.285990941E0
7.840925833E-1,2.232075173E-1,-2.052720603E0,-3.898324057E-2,2.065188409E0
7.941195833E-1,8.346432567E-2,-1.812700587E0,-2.085982490E-1,1.826571362E0
8.041455833E-1,-2.616687477E-2,-1.576677142E0,-5.193806845E-1,1.660226434E0
8.141725833E-1,-1.377153772E-1,-1.439297395E0,-9.003871568E-1,1.703302542E0
8.241985833E-1,-1.651165992E-1,-1.422432856E0,-1.229661997E0,1.887497642E0
8.342255833E-1,-2.275040513E-1,-1.386527444E0,-1.462099344E0,2.027794599E0
8.442525833E-1,-3.673910844E-1,-1.229948949E0,-1.637191731E0,2.080420003E0
8.542785833E-1,-4.306246287E-1,-1.020172486E0,-1.786777541E0,2.102085501E0
8.643055833E-1,-6.254316348E-1,-6.987235594E-1,-1.947044460E0,2.161101911E0
8.743325833E-1,-9.955364120E-1,-2.313842636E-1,-1.971438897E0,2.220631160E0
8.843585833E-1,-1.448176392E0,3.560585958E-1,-1.730884007E0,2.284721434E0
8.943855833E-1,-2.011362078E0,9.790174431E-1,-1.280766954E0,2.577676580E0
9.044125833E-1,-2.692658011E0,1.397909049E0,-8.112820221E-1,3.140499226E0
9.144385833E-1,-3.379854954E0,1.420443633E0,-3.928055687E-1,3.687190779E0
9.244655833E-1,-3.847166768E0,1.177342719E0,-1.356741142E-1,4.025572690E0
9.344915833E-1,-4.107690631E0,6.891733021E-1,-2.738872357E-1,4.174098271E0
9.445185833E-1,-4.234432538E0,4.362432182E-2,-8.143816312E-1,4.312254566E0
9.545455833E-1,-4.109628983E0,-2.915866113E-1,-1.534687702E0,4.396514468E0
9.645715833E-1,-3.747217387E0,1.960185492E-1,-2.193540852E0,4.346456360E0
9.745985833E-1,-3.459670032E0,1.367790626E0,-2.227301506E0,4.336016597E0
9.846255833E-1,-3.224028996E0,2.358787259E0,-1.481355833E0,4.260593316E0
9.946515833E-1,-2.915947389E0,2.519247136E0,-3.348197544E-1,3.868004599E0
1.004678583E0,-2.629533225E0,2.289706500E0,9.989125943E-1,3.626985967E0
1.014705583E0,-1.977987340E0,2.434253179E0,2.263660516E0,3.868097903E0
1.024731583E0,-7.736334085E-1,3.019864106E0,3.542183601E0,4.718596457E0
1.034758583E0,4.019440359E-1,3.583600014E0,4.511324512E0,5.775447768E0
1.044784583E0,9.768837941E-1,4.024937911E0,4.707222024E0,6.269957441E0
1.054811583E0,8.027121967E-1,4.043404003E0,3.407556138E0,5.348355040E0
1.064838583E0,1.182529199E-1,3.103366438E0,1.785520974E0,3.582311007E0
1.074864583E0,-8.487180895E-1,1.854995837E0,8.836405849E-1,2.223095282E0
1.084891583E0,-1.751936907E0,1.125824071E0,6.894954836E-1,2.193665149E0
1.094918583E0,-2.334232462E0,9.086748540E-1,9.889821218E-1,2.693031157E0
1.104944583E0,-2.571087381E0,1.037961470E0,1.613863095E0,3.208178365E0
1.114971583E0,-2.352913147E0,1.419679987E0,2.079615895E0,3.446228926E0
1.124998583E0,-1.711917393E0,1.885397265E0,2.004876785E0,3.241128650E0
1.135024583E0,-5.019787860E-1,1.988866670E0,1.412640232E0,2.490607507E0
1.145051833E0,8.382971817E-1,1.486608387E0,5.946792273E-1,1.807315701E0
1.155077833E0,1.524616458E0,5.703040856E-1,-1.575779302E-1,1.635399920E0
1.165104833E0,1.968548180E0,-5.445161104E-1,-6.759762825E-1,2.151423637E0
1.175131833E0,2.312238745E0,-1.591875810E0,-9.747191548E-1,2.971631545E0
1.185157833E0,2.530256274E0,-2.420264885E0,-1.159733975E0,3.688476897E0
1.195184833E0,2.745343763E0,-3.064342706E0,-1.321690739E0,4.321339492E0
1.205211833E0,2.978220820E0,-3.445648994E0,-1.519332329E0,4.801111014E0
1.215237833E0,3.185375392E0,-3.554144665E0,-1.655311814E0,5.051595578E0
1.225264833E0,3.463564278E0,-3.497093967E0,-1.754901006E0,5.225478089E0
1.235291833E0,3.535755756E0,-3.409313811E0,-1.819291568E0,5.237825049E0
1.245317833E0,3.429165693E0,-3.294870937E0,-1.744500564E0,5.065435229E0
1.255344833E0,3.364240549E0,-3.057303243E0,-1.658139966E0,4.838868229E0
1.265370833E0,3.315125692E0,-2.751185716E0,-1.662254798E0,4.617593768E0
1.275397833E0,3.239290228E0,-2.364464906E0,-1.585548538E0,4.312500393E0
1.285424833E0,3.200902088E0,-1.979848509E0,-1.453786211E0,4.034732785E0
1.295450833E0,3.118545225E0,-1.643980933E0,-1.278579803E0,3.750035192E0
1.305477833E0,2.902899912E0,-1.458931176E0,-1.047665363E0,3.413636007E0
1.315504833E0,2.579820197E0,-1.339899992E0,-8.384954023E-1,3.025537767E0
1.325530833E0,2.241321375E0,-1.320258025E0,-6.642694259E-1,2.684745170E0
1.335557833E0,1.906679960E0,-1.286747047E0,-6.013475382E-1,2.377554478E0
1.345584833E0,1.536407953E0,-1.255728738E0,-7.192765224E-1,2.110630895E0
1.355610833E0,1.136548449E0,-1.232829872E0,-8.312663434E-1,1.871527612E0
1.365637833E0,6.230611736E-1,-1.185487306E0,-9.195120835E-1,1.624526962E0
1.375663833E0,-1.639606047E-1,-9.535931647E-1,-1.073705061E0,1.445360011E0
1.385690833E0,-9.206756794E-1,-6.122642899E-1,-1.213819843E0,1.641910435E0
1.395717833E0,-1.527655256E0,-3.248812419E-1,-1.424060136E0,2.113581244E0
1.405743833E0,-2.136007758E0,-1.413388968E-2,-1.762515104E0,2.769329956E0
1.415770833E0,-2.469171581E0,3.962096715E-1,-1.986434666E0,3.193698966E0
1.425797833E0,-2.619584187E0,1.030833714E0,-1.942021263E0,3.419983340E0
1.435823833E0,-3.086079730E0,1.936559232E0,-1.554938510E0,3.961310835E0
1.445850833E0,-3.825619778E0,2.721522791E0,-9.946159141E-1,4.799095103E0
1.455877833E0,-4.682490056E0,2.692925228E0,-7.583977573E-1,5.454605995E0
1.465903833E0,-5.322212870E0,2.041247782E0,-1.099437341E0,5.805291104E0
1.475930833E0,-5.827949077E0,1.521750737E0,-1.937300659E0,6.327230800E0
1.485956833E0,-6.023914416E0,1.387068311E0,-2.873216522E0,6.816661689E0
1.495983833E0,-6.174204816E0,1.827887560E0,-3.269440811E0,7.221580246E0
1.506010833E0,-6.412107555E0,2.388682319E0,-2.488122407E0,7.280912006E0
1.516036833E0,-5.579299155E0,2.884072462E0,-8.425270575E-1,6.336900257E0
1.526063833E0,-2.857288706E0,3.840544211E0,8.644194715E-1,4.864267634E0
1.536090833E0,-6.955409199E-1,4.636066672E0,1.687847184E0,4.982541467E0
1.546116833E0,-1.544524473E-1,4.618799259E0,2.021309799E0,5.044091143E0
1.556143833E0,-2.618160975E-1,3.697554061E0,2.310919029E0,4.368157559E0
1.566169833E0,-6.362472296E-2,2.155611718E0,2.243688912E0,3.112049151E0
1.576196833E0,3.364721775E-2,1.165983918E0,2.288001598E0,2.568190402E0
1.586223833E0,-3.580425560E-2,1.196987609E0,2.943173487E0,3.177472495E0
1.596249833E0,1.627630949E-1,1.430051778E0,3.439331662E0,3.728343090E0
1.606276833E0,5.363995904E-1,1.303885236E0,3.278997501E0,3.569266849E0
1.616303833E0,5.029511780E-1,8.773162365E-1,2.746720197E0,2.926963530E0
1.626329833E0,2.887144589E-1,5.184638411E-1,2.418748556E0,2.490482959E0
1.636356833E0,7.323111355E-2,2.062856752E-1,2.380462449E0,2.390505814E0
1.646382833E0,1.139335817E-1,-1.390818715E-1,2.321296667E0,2.328248879E0
1.656409833E0,4.533129948E-1,-5.146473634E-1,2.092834257E0,2.202341891E0
1.666436833E0,7.238589853E-1,-7.048438400E-1,1.739095982E0,2.011276089E0
1.676462833E0,8.526684684E-1,-7.684995532E-1,1.368116316E0,1.785882788E0
1.686489833E0,9.876239598E-1,-8.281972861E-1,9.956732368E-1,1.628704094E0
1.696516833E0,1.328197374E0,-8.718216079E-1,6.879320844E-1,1.731309254E0
1.706542833E0,1.884961647E0,-9.032217407E-1,5.753734754E-1,2.167935553E0
1.716569833E0,2.490821482E0,-9.370396972E-1,4.226899570E-1,2.694606066E0
1.726595833E0,3.132592576E0,-1.179113256E0,1.018748689E-1,3.348704646E0
1.736622833E0,3.611863700E0,-1.539736773E0,-3.009117508E-1,3.937879709E0
1.746649833E0,3.953442251E0,-1.861313753E0,-6.640503015E-1,4.419859423E0
1.756675833E0,4.167464377E0,-2.121590279E0,-8.644811596E-1,4.755652670E0
1.766702833E0,4.266201630E0,-2.243067353E0,-8.988094318E-1,4.903028237E0
1.776729833E0,4.178377036E0,-2.229080814E0,-8.104740831E-1,4.804633614E0
1.786755833E0,3.968650274E0,-2.216384754E0,-6.281250085E-1,4.588800214E0
1.796782833E0,3.609659885E0,-2.209066964E0,-4.148098107E-1,4.252256873E0
1.806809833E0,3.159889718E0,-2.296559436E0,-2.592417146E-1,3.914881165E0
1.816835833E0,2.556327254E0,-2.488676139E0,-1.607947759E-1,3.571298491E0
1.826862833E0,1.956739143E0,-2.646106573E0,-3.700922057E-2,3.291212201E0
1.836888833E0,1.503397497E0,-2.689329191E0,8.206450224E-2,3.082114552E0
1.846915833E0,1.241006618E0,-2.663303234E0,1.603084338E-1,2.942614541E0
1.856942833E0,1.058060104E0,-2.530404208E0,1.174242233E-1,2.745218587E0
1.866968833E0,8.532707316E-1,-2.337905098E0,-4.877396464E-2,2.489226805E0
1.876995833E0,6.588689375E-1,-2.097680429E0,-2.254528481E-1,2.210248956E0
1.887022833E0,3.415732884E-1,-1.850876473E0,-3.312978302E-1,1.911066269E0
1.897048833E0,8.197094679E-2,-1.621732278E0,-3.282661951E-1,1.656651295E0
1.907075833E0,-1.337878025E-1,-1.307111730E0,-3.359938753E-1,1.356219796E0
1.917101833E0,-6.672608614E-1,-9.286273080E-1,-5.361629243E-1,1.262955429E0
1.927128833E0,-1.437914529E0,-4.656237227E-1,-9.615174575E-1,1.791345713E0
1.937155833E0,-1.763060065E0,1.806362790E-1,-1.188264879E0,2.133772172E0
1.947181833E0,-1.699528897E0,7.855061799E-1,-1.026544343E0,2.135231069E0
1.957208833E0,-1.943822059E0,1.134744583E0,-7.161139096E-1,2.361971337E0
1.967235833E0,-2.659737602E0,1.162704214E0,-4.047675101E-1,2.930856861E0
1.977261833E0,-3.621266608E0,9.567629403E-1,-1.180891979E-1,3.747387387E0
1.987288833E0,-4.634226553E0,6.637297279E-1,3.879569113E-2,4.681676836E0
1.997314833E0,-5.372921678E0,3.491237980E-1,3.769436806E-2,5.384384427E0
2.007341833E0,-5.294621614E0,-6.776922941E-3,-8.985006988E-2,5.295388276E0
2.017368833E0,-4.601647621E0,-2.436751109E-1,-4.922898035E-1,4.634316308E0
2.027394833E0,-3.924740024E0,4.850850105E-3,-1.150720492E0,4.089959099E0
2.037421833E0,-3.910707291E0,9.568611735E-1,-1.515781900E0,4.301954159E0
2.047448833E0,-4.147492043E0,1.760842216E0,-1.081163769E0,4.633699456E0
2.057474833E0,-3.697059971E0,1.554229097E0,-6.859807223E-3,4.010477225E0
2.067501833E0,-2.845871433E0,1.220203394E0,1.365962055E0,3.384336401E0
2.077527833E0,-1.443178192E0,1.719949713E0,2.653085809E0,3.475608526E0
2.087554833E0,4.082736468E-1,2.637528707E0,3.568995423E0,4.456565200E0
2.097581833E0,1.712117953E0,3.587632254E0,4.002101610E0,5.640857237E0
2.107607833E0,2.252388400E0,4.300001460E0,3.400544157E0,5.926800707E0
2.117634833E0,9.609308356E-1,3.996740298E0,1.802491787E0,4.488462735E0
2.127660833E0,-7.794513881E-1,2.974262840E0,6.941315947E-1,3.152079088E0
2.137688083E0,-1.800851204E0,1.753051971E0,4.812680943E-1,2.558881641E0
2.147715083E0,-2.319625533E0,1.069300207E0,9.227238129E-1,2.715784376E0
2.157741083E0,-2.366154751E0,1.196764246E0,1.550405602E0,3.071594130E0
2.167768083E0,-1.779922265E0,1.709597218E0,2.074614771E0,3.224107996E0
2.177795083E0,-9.069241977E-1,2.218001509E0,2.158658118E0,3.225189462E0
2.187821083E0,-2.155090731E-1,2.604823476E0,1.761395801E0,3.151835127E0
2.197848083E0,3.839889908E-1,2.543066354E0,9.670848839E-1,2.747705806E0
2.207874083E0,8.414850837E-1,1.902765250E0,1.577647488E-1,2.086504842E0
2.217901083E0,1.135014140E0,9.727164835E-1,-3.689483441E-1,1.539661435E0
2.227928083E0,1.475613867E0,1.492794156E-2,-6.796810783E-1,1.624692431E0
2.237954083E0,1.708577464E0,-8.985018682E-1,-9.447558291E-1,2.149210584E0
2.247981083E0,1.848824100E0,-1.691512365E0,-1.151971065E0,2.757970625E0
2.258008083E0,2.292564034E0,-2.363282014E0,-1.260761582E0,3.525687379E0
2.268034083E0,2.805353152E0,-2.819331506E0,-1.308615049E0,4.187016813E0
2.278061083E0,3.176577086E0,-3.007674415E0,-1.322647051E0,4.570135949E0
2.288087083E0,3.566161278E0,-3.186300421E0,-1.462676318E0,5.000943775E0
2.298114083E0,3.819844483E0,-3.241357219E0,-1.656253216E0,5.276436602E0
2.308141083E0,3.898003045E0,-3.131669886E0,-1.715858855E0,5.286393442E0
2.318167083E0,3.929720682E0,-2.945025008E0,-1.501348048E0,5.135165323E0
2.328194083E0,3.863227315E0,-2.805330348E0,-1.354315863E0,4.962718520E0
2.338221083E0,3.721974957E0,-2.682797266E0,-1.271575131E0,4.761029517E0
2.348247083E0,3.502654084E0,-2.474123003E0,-1.222539357E0,4.459200909E0
2.358274083E0,3.287581798E0,-2.260929428E0,-1.164750740E0,4.156517802E0
2.368300083E0,3.080692690E0,-1.993823354E0,-1.100395261E0,3.831040165E0
2.378327083E0,2.921341445E0,-1.700874926E0,-1.028566602E0,3.533434676E0
2.388354083E0,2.657213359E0,-1.470665368E0,-9.260247123E-1,3.175084444E0
2.398380083E0,2.271567267E0,-1.361688471E0,-8.689658278E-1,2.787349091E0
2.408407083E0,1.856352391E0,-1.289751347E0,-8.571692164E-1,2.417486670E0
2.418433083E0,1.333745213E0,-1.219388877E0,-8.123479696E-1,1.981336607E0
2.428460083E0,6.845838225E-1,-1.113162510E0,-7.208944470E-1,1.492472642E0
2.438487083E0,-1.783593732E-1,-1.006035672E0,-7.218633306E-1,1.251002202E0
2.448513083E0,-1.214100655E0,-8.627765501E-1,-9.699582057E-1,1.777425863E0
2.458540083E0,-2.085782515E0,-6.810345626E-1,-1.476781117E0,2.644840117E0
2.468567083E0,-2.329641228E0,-3.663438481E-1,-1.978612554E0,3.078367052E0
2.478593083E0,-2.206504129E0,2.021499395E-1,-2.167987496E0,3.099950783E0
2.488620083E0,-2.310031421E0,9.327536881E-1,-2.100581671E0,3.258637440E0
2.498646083E0,-3.048405535E0,1.659208252E0,-1.862124177E0,3.938686936E0
2.508673083E0,-4.841926669E0,2.251997806E0,-1.472208449E0,5.539236925E0
2.518700083E0,-6.499408239E0,2.081489489E0,-1.454028870E0,6.977757943E0
2.528726083E0,-6.998108491E0,1.375520060E0,-1.340961846E0,7.256979851E0
2.538753083E0,-7.302298776E0,3.434467363E-1,-1.454513605E0,7.453665736E0
2.548780083E0,-7.018517028E0,8.266384184E-2,-1.882487690E0,7.267060925E0
2.558806083E0,-5.579790321E0,1.046402510E0,-2.580612495E0,6.236070805E0
2.568833083E0,-4.549811470E0,2.368888909E0,-2.733559284E0,5.812466382E0
2.578859083E0,-4.677538633E0,3.024841840E0,-1.694023744E0,5.822263501E0
2.588886083E0,-4.135505251E0,3.245751402E0,2.684379230E-1,5.263968537E0
2.598913083E0,-1.691350982E0,3.623530650E0,1.796015557E0,4.383641682E0
2.608939083E0,5.620723754E-1,4.103988174E0,2.019294410E0,4.608274536E0
2.618966083E0,1.341118551E0,4.302349702E0,2.184844288E0,5.008228878E0
2.628992083E0,1.175430679E0,3.700953632E0,2.388051989E0,4.558671667E0
2.639019083E0,5.066939807E-1,2.574265342E0,2.274656790E0,3.472411893E0
2.649046083E0,-5.533980310E-1,1.577218010E0,2.227134129E0,2.784599156E0
2.659072083E0,-1.175548793E0,1.162070376E0,2.635393889E0,3.110887892E0
2.669099083E0,-1.043751968E0,1.406369970E0,3.318226470E0,3.752055646E0
2.679126083E0,-5.316949207E-1,1.553480653E0,3.411719356E0,3.786268690E0
2.689152083E0,-1.733371997E-1,1.131578316E0,2.759739608E0,2.987754671E0
2.699179083E0,2.136818182E-1,5.346793395E-1,2.081425170E0,2.159600114E0
2.709205083E0,5.522952461E-1,1.812987685E-1,1.694170948E0,1.791121013E0
2.719232083E0,7.803243774E-1,-1.359477639E-2,1.395317709E0,1.598750281E0
2.729259083E0,7.486728144E-1,-5.979421198E-2,1.249374568E0,1.457745912E0
2.739285083E0,3.867529696E-1,-1.328370452E-2,1.159215035E0,1.222102211E0
2.749312083E0,3.280948716E-1,-7.251716852E-2,1.023295337E0,1.077050757E0
2.759338083E0,6.483714312E-1,-3.929668057E-1,9.654314375E-1,1.227544819E0
2.769365083E0,1.230337788E0,-7.790157706E-1,9.440032925E-1,1.735436216E0
2.779392083E0,1.934401025E0,-1.021020332E0,9.257469696E-1,2.375162583E0
2.789418083E0,2.538348235E0,-1.179637751E0,8.383098994E-1,2.921903571E0
2.799445083E0,3.066107980E0,-1.392048969E0,5.628380683E-1,3.414030634E0
2.809471083E0,3.500552010E0,-1.740486889E0,1.427644479E-1,3.911974012E0
2.819498083E0,3.825370102E0,-2.043742204E0,-2.575154704E-1,4.344727014E0
2.829525083E0,4.035761692E0,-2.267305816E0,-6.895317364E-1,4.680117746E0
2.839551083E0,4.224482331E0,-2.436912493E0,-1.033019403E0,4.985170263E0
2.849578083E0,4.271386941E0,-2.417097448E0,-1.198252362E0,5.052020902E0
2.859605083E0,4.188191587E0,-2.423972604E0,-1.272790474E0,5.003657417E0
2.869631083E0,4.024481828E0,-2.405419389E0,-1.090850705E0,4.813777278E0
2.879658083E0,3.478481694E0,-2.386743967E0,-8.144032659E-1,4.296467659E0
2.889684083E0,2.828486491E0,-2.289614114E0,-3.838131358E-1,3.659232316E0
2.899711083E0,2.283462258E0,-2.230592903E0,7.941834480E-3,3.192147813E0
2.909738083E0,1.852416630E0,-2.316702510E0,1.288036358E-1,2.969031536E0
2.919764083E0,1.566233431E0,-2.447921045E0,7.392459333E-2,2.907037917E0
2.929791083E0,1.341806769E0,-2.528019714E0,-1.076858318E-1,2.864074949E0
2.939817083E0,1.129989043E0,-2.443126913E0,-2.933992481E-1,2.707734749E0
2.949844083E0,8.431883776E-1,-2.220614630E0,-3.890174501E-1,2.406954622E0
2.959871083E0,3.576162940E-1,-1.945369232E0,-3.623700804E-1,2.010886108E0
2.969897083E0,-1.701703477E-1,-1.690555760E0,-2.426350375E-1,1.716335773E0
2.979924083E0,-7.772686225E-1,-1.354337352E0,-1.292702436E-1,1.566871715E0
2.989950083E0,-1.351427193E0,-9.349832314E-1,-1.558282971E-1,1.650706382E0
2.999977083E0,-1.611071634E0,-4.025790435E-1,-1.990881912E-1,1.672500465E0
3.010004083E0,-1.569599088E0,9.663400948E-2,-2.135077174E-1,1.586998731E0
3.020030083E0,-1.537463375E0,4.170871550E-1,-1.717030491E-1,1.602260048E0
3.030057083E0,-1.817733285E0,5.285485339E-1,-2.358206923E-1,1.907650190E0
3.040084083E0,-2.426417910E0,4.596847057E-1,-4.016067977E-1,2.502019569E0
3.050110083E0,-3.288113310E0,3.713128120E-1,-5.897367221E-1,3.361153335E0
3.060137083E0,-4.204781892E0,3.941245544E-1,-7.694076258E-1,4.292727923E0
3.070163083E0,-4.935583277E0,4.664440870E-1,-9.287389898E-1,5.043818839E0
3.080190083E0,-5.134608464E0,4.574838138E-1,-9.775785895E-1,5.246823365E0
3.090217083E0,-4.778042330E0,2.728246504E-1,-9.814786823E-1,4.885429582E0
3.100243083E0,-4.186660202E0,1.804181778E-1,-1.072273224E0,4.325557100E0
3.110270083E0,-3.658459577E0,6.211000174E-1,-1.211110535E0,3.903444689E0
3.120296083E0,-3.593271893E0,1.728997695E0,-5.794514698E-1,4.029491275E0
3.130323083E0,-3.553533046E0,2.434015782E0,1.018596515E0,4.426010483E0
3.140349708E0,-2.765116122E0,1.458966844E0,2.242487748E0,3.847493044E0
3.150375708E0,-5.746655238E-1,-1.138160527E-2,2.491191026E0,2.556638952E0
3.160402708E0,1.703479861E0,3.203186595E-1,2.523489876E0,3.061445546E0
3.170428708E0,2.582569558E0,2.170381785E0,2.504809191E0,4.201701048E0
3.180455708E0,2.725529888E0,4.115376211E0,2.407316957E0,5.491812948E0
3.190482708E0,2.297844070E0,4.838849865E0,2.041159196E0,5.732441561E0
3.200508708E0,6.017995280E-1,4.314158739E0,1.267891385E0,4.536703303E0
3.210535708E0,-1.408737507E0,3.421493561E0,8.532185452E-1,3.797254461E0
3.220561708E0,-2.765372815E0,2.490642557E0,1.127079322E0,3.888559496E0
3.230588708E0,-3.019753593E0,1.924298206E0,1.740503261E0,3.981354914E0
3.240615708E0,-2.401618699E0,1.925424964E0,2.265472130E0,3.821962538E0
3.250641708E0,-1.727555187E0,2.285044515E0,2.607878062E0,3.873874461E0
3.260668708E0,-1.181912318E0,3.039370417E0,2.544228780E0,4.136156349E0
3.270694708E0,-4.768375129E-1,3.595687378E0,1.791565095E0,4.045497154E0
3.280721708E0,1.269869059E-1,3.236405797E0,6.425616378E-1,3.302019627E0
3.290748708E0,5.266417569E-1,2.098281523E0,-3.663083263E-1,2.194155573E0
3.300774708E0,9.880823815E-1,9.681293428E-1,-9.126616319E-1,1.657266566E0
3.310801708E0,1.416216681E0,2.598561108E-2,-1.184599260E0,1.846515731E0
3.320828708E0,1.857802500E0,-7.796876156E-1,-1.331367735E0,2.414929182E0
3.330854708E0,2.339235924E0,-1.523790246E0,-1.280298738E0,3.071339493E0
3.340881708E0,2.794293144E0,-2.073262457E0,-1.169933127E0,3.670862965E0
3.350907708E0,3.196498550E0,-2.476446102E0,-1.178371975E0,4.211763145E0
3.360934708E0,3.604786230E0,-2.766512437E0,-1.287119515E0,4.722790645E0
3.370961708E0,3.972290751E0,-2.948150344E0,-1.395393430E0,5.139825589E0
3.380987708E0,4.211706750E0,-3.087278409E0,-1.576085404E0,5.454705026E0
3.391014708E0,4.285542465E0,-3.151082057E0,-1.650750255E0,5.569575276E0
3.401040708E0,4.172994674E0,-3.031187823E0,-1.552351702E0,5.386258439E0
3.411067708E0,3.896670465E0,-2.873923450E0,-1.289225974E0,5.010546908E0
3.421094708E0,3.553741792E0,-2.711949145E0,-9.175474191E-1,4.563512041E0
3.431120708E0,3.006901998E0,-2.464841718E0,-5.948093279E-1,3.933281385E0
3.441147708E0,2.537334913E0,-2.270526463E0,-5.131997390E-1,3.443360691E0
3.451173708E0,2.197967194E0,-2.041475823E0,-6.392146915E-1,3.067128746E0
3.461200708E0,2.223810718E0,-1.841192899E0,-9.363435861E-1,3.035138335E0
3.471227708E0,2.277478802E0,-1.494995633E0,-1.176095800E0,2.967342745E0
3.481253708E0,1.939999734E0,-1.174471736E0,-1.319072648E0,2.623534920E0
3.491280708E0,1.447693997E0,-8.354706377E-1,-1.343635339E0,2.144571057E0
3.501306708E0,9.534762204E-1,-5.164342725E-1,-1.335568228E0,1.720338267E0
3.511333708E0,3.177529013E-1,-2.667306823E-1,-1.546561789E0,1.601238749E0
3.521360708E0,-4.242687052E-1,-3.000247282E-1,-1.920384665E0,1.989446162E0
3.531386708E0,-1.291686775E0,-4.198873866E-1,-2.459399714E0,2.809520795E0
3.541413708E0,-1.359142594E0,4.273320615E-2,-2.290702280E0,2.663909093E0
3.551439708E0,-1.047133412E0,1.075142745E0,-1.723815308E0,2.285598285E0
3.561466708E0,-7.411369228E-1,1.850036813E0,-1.328724647E0,2.395293163E0
3.571493708E0,-1.333967407E0,2.084128338E0,-8.082571113E-1,2.603140320E0
3.581519708E0,-2.393184090E0,2.837708720E0,-2.820536032E-1,3.722831598E0
3.591546708E0,-3.941187072E0,3.116056650E0,-1.294256334E-1,5.025884557E0
3.601572708E0,-5.614621600E0,1.986017321E0,-4.128134251E-2,5.955664922E0
3.611599708E0,-7.474486413E0,-2.751924804E-1,-4.627137096E-1,7.493849613E0
3.621626708E0,-8.647388172E0,-1.700123559E0,-1.097996733E0,8.881066329E0
3.631652708E0,-8.214479620E0,-1.461809760E0,-2.285888999E0,8.651002932E0
3.641679708E0,-7.188339466E0,3.556972378E-1,-2.301024370E0,7.556021305E0
3.651705708E0,-6.670436373E0,2.112094693E0,-1.107425369E0,7.083929443E0
3.661732708E0,-5.596159601E0,2.783181387E0,6.436730473E-1,6.283105594E0
3.671759708E0,-3.244539274E0,3.243220434E0,1.886003036E0,4.960092876E0
3.681785708E0,-1.076666529E0,3.887685049E0,2.340242961E0,4.663694133E0
3.691812708E0,-4.491316509E-1,4.343874581E0,2.461056815E0,5.012760344E0
3.701838708E0,-3.915389156E-1,4.012171100E0,2.301477968E0,4.641941458E0
3.711865708E0,-3.121705645E-1,3.031987138E0,1.953295133E0,3.620187611E0
3.721892708E0,-1.286714888E-1,2.669976661E0,2.119900580E0,3.411643327E0
3.731918708E0,1.594219959E-1,2.507684852E0,2.762752093E0,3.734527790E0
3.741945708E0,5.117722875E-1,2.380006220E0,3.340448813E0,4.133393129E0
3.751971708E0,8.023999554E-1,1.168973014E0,3.146646359E0,3.451336974E0
3.761998708E0,9.861668336E-1,4.362940890E-1,3.034585056E0,3.220494374E0
3.772025708E0,8.315319532E-1,4.775081885E-1,2.829093432E0,2.987177448E0
3.782051708E0,6.326728266E-1,7.488230878E-1,2.461838003E0,2.649840991E0
3.792078708E0,6.599483335E-1,4.048565340E-1,1.545114896E0,1.728242071E0
3.802104708E0,8.318389320E-1,6.467663705E-2,7.451533753E-1,1.118656618E0
3.812131708E0,9.177310216E-1,1.919126344E-1,4.248667292E-1,1.029355344E0
3.822158708E0,1.183123861E0,2.855616403E-1,4.101716530E-1,1.284355210E0
3.832184708E0,1.680104447E0,-6.392176151E-2,2.894089620E-1,1.706046451E0
3.842211708E0,2.196914111E0,-7.091748726E-1,1.631956427E-1,2.314301931E0
3.852237708E0,2.624809844E0,-1.150095863E0,8.542635888E-3,2.865732051E0
3.862264708E0,3.120609292E0,-1.414499938E0,-9.791411117E-2,3.427623025E0
3.872291708E0,3.617230275E0,-1.657051799E0,-3.038825749E-1,3.990303265E0
3.882317708E0,3.982846729E0,-1.920746607E0,-4.684928052E-1,4.446551597E0
3.892344708E0,4.167405320E0,-2.174282463E0,-5.344920824E-1,4.730798359E0
3.902370708E0,4.234170583E0,-2.439143790E0,-6.626931627E-1,4.931205246E0
3.912397708E0,4.338117705E0,-2.550439108E0,-6.918033797E-1,5.079625654E0
3.922424708E0,4.024159647E0,-2.621216145E0,-6.544773862E-1,4.846955291E0
3.932450708E0,3.769809274E0,-2.436466350E0,-3.355161577E-1,4.501155555E0
3.942477708E0,3.191668165E0,-1.980950124E0,2.066721761E-1,3.762130043E0
3.952503708E0,2.503001817E0,-1.632594650E0,3.286410016E-1,3.006391241E0
3.962530708E0,2.074927744E0,-1.708687976E0,-2.834075260E-1,2.702824368E0
3.972557708E0,1.825279702E0,-1.868581842E0,-8.533566856E-1,2.747992308E0
3.982583708E0,1.766255568E0,-1.851360038E0,-8.531333220E-1,2.697226203E0
3.992610708E0,1.855353101E0,-1.905991743E0,-5.573652206E-1,2.717682035E0
4.002636708E0,1.734464841E0,-2.109057941E0,-5.395929010E-1,2.783460829E0
4.012663708E0,1.426855105E0,-2.121803702E0,-5.914177966E-1,2.624450695E0
4.022690708E0,9.769843662E-1,-2.107313132E0,-7.193268085E-1,2.431604028E0
4.032716708E0,4.812720412E-1,-1.942019362E0,-9.090407436E-1,2.197593469E0
4.042743708E0,-1.509838790E-1,-1.479070156E0,-5.923077428E-1,1.600397801E0
4.052769708E0,-5.487910098E-1,-1.051805922E0,-1.274940057E-1,1.193198220E0
4.062796708E0,-5.698532653E-1,-8.586881769E-1,-3.753118689E-1,1.096784905E0
4.072822708E0,-6.449870628E-1,-7.290320170E-1,-7.422761066E-1,1.224120015E0
4.082849708E0,-7.492101735E-1,-5.509708518E-1,-8.885089767E-1,1.286208756E0
4.092876708E0,-9.068043298E-1,-2.988845211E-1,-7.037942648E-1,1.186150250E0
4.102902708E0,-1.327588094E0,1.100141931E-1,-3.936776809E-1,1.389091569E0
4.112929708E0,-2.147778788E0,4.805861628E-1,-1.563520615E-1,2.206436664E0
4.122955708E0,-2.648021536E0,6.945942557E-1,1.559686303E-2,2.737649082E0
4.132982708E0,-2.943327561E0,5.866675186E-1,1.846009836E-2,3.001282507E0
4.143009000E0,-3.601531085E0,2.781856701E-1,-2.210991575E-1,3.619018964E0
4.153035000E0,-4.356148179E0,6.073736787E-2,-2.255366094E-1,4.362405615E0
4.163062000E0,-5.082537839E0,-7.808593976E-1,-7.258299355E-1,5.193145615E0
4.173088000E0,-5.660388342E0,-1.504242712E0,-1.149447846E0,5.968582132E0
4.183115000E0,-6.077027015E0,-2.032028477E0,-1.736455234E0,6.638875948E0
4.193142000E0,-6.146645134E0,-1.091650019E0,-1.359876419E0,6.389226091E0
4.203168000E0,-5.951802460E0,-2.348469847E-1,-3.182686257E-1,5.964930892E0
4.213195000E0,-5.694689278E0,1.545480493E-1,3.621974413E-1,5.708288540E0
4.223221000E0,-4.774964941E0,4.703669840E-1,4.371705866E-1,4.817951163E0
4.233248000E0,-3.372441854E0,1.819954643E0,9.270526528E-1,3.942718045E0
4.243275000E0,-1.653576214E0,3.012955913E0,1.865396425E0,3.910488646E0
4.253301000E0,8.675806224E-2,4.089824171E0,2.459694999E0,4.773289033E0
4.263328000E0,1.711098783E0,4.491220907E0,2.983501441E0,5.656872381E0
4.273354000E0,2.690233170E0,4.413976265E0,3.170318227E0,6.063947447E0
4.283381000E0,2.981057889E0,4.015433262E0,3.057218750E0,5.861484190E0
4.293408000E0,2.338374630E0,3.158566200E0,2.817651601E0,4.835669229E0
4.303434000E0,9.543708444E-1,1.947653447E0,2.295247029E0,3.157900661E0
4.313461000E0,-3.865828156E-1,1.159586479E0,1.922787578E0,2.278420318E0
4.323487000E0,-1.535550166E0,1.080118141E0,2.016913132E0,2.755450615E0
4.333514000E0,-2.109320481E0,1.426838148E0,2.343057372E0,3.460493873E0
4.343541000E0,-2.014161140E0,1.606252652E0,2.520394360E0,3.604064429E0
4.353567000E0,-1.271422080E0,1.555697625E0,2.373629832E0,3.109795457E0
4.363594000E0,-3.942590404E-1,1.460214640E0,1.801890255E0,2.352546594E0
4.373620000E0,2.941137779E-1,1.379106742E0,9.122603667E-1,1.679481258E0
4.383647000E0,9.668090415E-1,1.071698150E0,-2.638731480E-2,1.443590294E0
4.393674000E0,1.513647081E0,4.221984985E-1,-8.224597058E-1,1.773645688E0
4.403700000E0,1.898334814E0,-4.811527580E-1,-1.414367791E0,2.415702650E0
4.413727000E0,2.215445107E0,-1.431662394E0,-1.790059145E0,3.187815235E0
4.423753000E0,2.494337997E0,-2.230447893E0,-1.971911498E0,3.883948352E0
4.433780000E0,2.699889262E0,-2.810161902E0,-1.913275766E0,4.341317323E0
4.443806000E0,2.718121465E0,-3.021974073E0,-1.740943118E0,4.421695890E0
4.453833000E0,2.650320661E0,-3.034116109E0,-1.514254753E0,4.303838708E0
4.463860000E0,2.503509355E0,-2.901967281E0,-1.312677841E0,4.051184556E0
4.473886000E0,2.271939735E0,-2.497788732E0,-1.179026717E0,3.576417580E0
4.483913000E0,2.234732147E0,-2.055396582E0,-1.113069832E0,3.233822402E0
4.493939000E0,2.399944641E0,-1.567765401E0,-1.015901095E0,3.041328273E0
4.503966000E0,2.739740961E0,-1.101982634E0,-8.993877214E-1,3.086979840E0
4.513993000E0,3.188976107E0,-7.847708926E-1,-8.600086243E-1,3.394856227E0
4.524019000E0,3.581295626E0,-5.963736042E-1,-8.459181502E-1,3.727856939E0
4.534046000E0,3.791539866E0,-4.556840408E-1,-8.707615077E-1,3.916841598E0
4.544072000E0,3.790750492E0,-4.639493725E-1,-9.437508389E-1,3.933917127E0
4.554099000E0,3.631715582E0,-6.774949506E-1,-1.044496464E0,3.839183551E0
4.564126000E0,3.237078812E0,-1.012503570E0,-1.159844926E0,3.584561753E0
4.574152000E0,2.586165011E0,-1.395887082E0,-1.271122702E0,3.201953019E0
4.584179000E0,1.842823103E0,-1.525566923E0,-1.298755474E0,2.722153046E0
4.594205000E0,1.160819657E0,-1.434036071E0,-1.252986394E0,2.230232416E0
4.604232000E0,4.767451268E-1,-1.293207928E0,-1.238160778E0,1.852758693E0
4.614258000E0,-1.844895941E-1,-1.220308059E0,-1.355648298E0,1.833294978E0
4.624285000E0,-9.202102411E-1,-1.042352436E0,-1.515236939E0,2.056508807E0
4.634312000E0,-1.490838262E0,-6.935823950E-1,-1.721905022E0,2.380884745E0
4.644338000E0,-1.715350294E0,-1.792601368E-1,-1.921960343E0,2.582342422E0
4.654365000E0,-1.583995517E0,4.455183640E-1,-1.908840945E0,2.520159155E0
4.664391000E0,-1.647400385E0,1.256930341E0,-1.549753053E0,2.587573465E0
4.674418000E0,-2.659090900E0,2.143806775E0,-8.682869661E-1,3.524286333E0
4.684445000E0,-4.196791672E0,2.574416201E0,-1.191007662E-1,4.924922751E0
4.694471000E0,-5.549544429E0,1.858862016E0,2.114106135E-1,5.856407244E0
4.704498000E0,-6.243322998E0,1.809789258E-1,-3.330492175E-1,6.254818719E0
4.714524000E0,-6.017544460E0,-1.488738235E0,-1.402351763E0,6.355609595E0
4.724551000E0,-5.665798770E0,-2.250041035E0,-2.474380281E0,6.579249056E0
4.734578000E0,-5.390242885E0,-1.921632460E0,-3.208780042E0,6.560766650E0
4.744604000E0,-5.527108662E0,-5.247130528E-1,-3.535738800E0,6.582226281E0
4.754631000E0,-6.141355158E0,1.275997818E0,-3.125513937E0,7.008084687E0
4.764657000E0,-5.845338696E0,3.043646193E0,-1.682449765E0,6.801647141E0
4.774684000E0,-3.567689155E0,4.503864342E0,-1.916039014E-1,5.748905285E0
4.784710000E0,-1.176690754E0,5.707299968E0,8.096605892E-1,5.883317459E0
4.794737000E0,1.758485788E-1,6.443991838E0,1.821304765E0,6.698739028E0
4.804764000E0,1.166829425E0,5.449373438E0,2.646312395E0,6.169289349E0
4.814790000E0,1.909811144E0,3.326743232E0,3.068633392E0,4.912342622E0
4.824817000E0,2.207892258E0,1.894839934E0,3.759248618E0,4.753646681E0
4.834843000E0,1.944338368E0,1.139751846E0,4.786835958E0,5.290868024E0
4.844870000E0,1.481833550E0,8.374718472E-1,5.492640495E0,5.750329502E0
4.854897000E0,1.131191815E0,6.826469323E-1,5.766110094E0,5.915541173E0
4.864923000E0,1.017663445E0,3.154891518E-1,5.409446311E0,5.513372986E0
4.874950000E0,1.285510946E0,-3.186264753E-2,4.521846576E0,4.701132851E0
4.884976000E0,1.594059745E0,-2.699726710E-1,3.492934842E0,3.848961616E0
4.895003000E0,1.719873115E0,-3.501964697E-1,2.625841293E0,3.158424226E0
4.905029000E0,1.811355143E0,-4.102514675E-1,1.965546219E0,2.704197785E0
4.915056000E0,1.630716525E0,-5.475803438E-1,1.499950417E0,2.282308452E0
4.925083000E0,1.097366257E0,-6.433898959E-1,1.138786033E0,1.707336197E0
4.935109000E0,6.105452085E-1,-5.676143664E-1,8.651885265E-1,1.201458575E0
4.945136000E0,4.379663926E-1,-5.503767747E-1,5.801123513E-1,9.117343337E-1
4.955162000E0,6.223396271E-1,-6.218794513E-1,1.716989560E-1,8.963934376E-1
4.965189000E0,1.261278330E0,-6.790839314E-1,-1.883370620E-1,1.444800630E0
4.975216000E0,2.148111495E0,-7.991255146E-1,-4.525097336E-1,2.336182707E0
4.985242000E0,3.013436261E0,-9.461707091E-1,-6.799171597E-1,3.230839590E0
4.995269000E0,3.652453317E0,-1.160558871E0,-8.743351798E-1,3.930874474E0
5.005295000E0,4.064034734E0,-1.381627769E0,-1.012267635E0,4.410210808E0
5.015322000E0,4.231860933E0,-1.596487217E0,-1.047702931E0,4.642747012E0
5.025348000E0,4.128821883E0,-1.720460175E0,-9.237378663E-1,4.567323615E0
5.035375000E0,3.731395406E0,-1.697352564E0,-5.714163722E-1,4.138941178E0
5.045402000E0,3.125197603E0,-1.577417400E0,-1.825173283E-1,3.505484030E0
5.055428000E0,2.497989584E0,-1.400233317E0,1.258537155E-1,2.866434102E0
5.065455000E0,1.857203745E0,-1.179334865E0,3.267741318E-1,2.224144287E0
5.075481000E0,1.399531066E0,-1.151195725E0,3.814716183E-1,1.851879963E0
5.085508000E0,1.111467987E0,-1.222003460E0,3.284188074E-1,1.684194898E0
5.095534000E0,1.022861035E0,-1.398054937E0,1.348313843E-1,1.737521743E0
5.105561000E0,1.100365294E0,-1.619947123E0,-1.944142194E-1,1.967950546E0
5.115588000E0,1.320269135E0,-1.668928956E0,-5.806460559E-1,2.205806948E0
5.125614000E0,1.460104128E0,-1.523670378E0,-8.970022036E-1,2.293052210E0
5.135641000E0,1.387563570E0,-1.296218367E0,-1.053806255E0,2.171640472E0
5.145667458E0,1.040257087E0,-1.096014673E0,-1.063776342E0,1.847972694E0
5.155694458E0,4.851581007E-1,-8.680057150E-1,-9.809609114E-1,1.396816600E0
5.165721458E0,-1.333586168E-1,-6.831617796E-1,-8.918089990E-1,1.131290338E0
5.175747458E0,-7.497030938E-1,-5.553919315E-1,-8.121232903E-1,1.236955604E0
5.185774458E0,-1.305460476E0,-3.814299569E-1,-7.141542153E-1,1.536141956E0
5.195800458E0,-1.547718222E0,-2.377635759E-1,-6.101926214E-1,1.680564860E0
5.205827458E0,-1.426031232E0,-2.057056314E-1,-5.285200287E-1,1.534670422E0
5.215853458E0,-1.243129742E0,-2.188905180E-1,-3.543545710E-1,1.311049876E0
5.225880458E0,-1.294074193E0,-2.554382470E-1,-1.670694230E-1,1.329582231E0
5.235907458E0,-1.787418981E0,-2.047288540E-1,1.075873062E-2,1.799137645E0
5.245933458E0,-2.648683441E0,-4.180671483E-2,2.314794271E-1,2.659107838E0
5.255960458E0,-3.498225988E0,-8.366839349E-2,6.488862786E-1,3.558881687E0
5.265986458E0,-4.230804926E0,-4.336645961E-1,7.915516162E-1,4.326006156E0
5.276013458E0,-4.763154150E0,-9.974025509E-1,5.529593436E-1,4.897776367E0
5.286040458E0,-4.933067220E0,-1.633512663E0,-8.446887732E-2,5.197177196E0
5.296066458E0,-5.121015442E0,-1.695973206E0,-9.350668466E-1,5.474986236E0
5.306093458E0,-5.391791813E0,-1.240614562E0,-1.588130084E0,5.756101164E0
5.316119458E0,-5.487773858E0,-9.353270477E-1,-2.027831345E0,5.924744599E0
5.326146458E0,-4.772997937E0,-7.835058475E-1,-2.168612856E0,5.300780362E0
5.336172458E0,-3.697749943E0,-9.649133742E-2,-1.247703434E0,3.903771135E0
5.346199458E0,-2.675385920E0,1.127309849E0,8.064070523E-2,2.904310631E0
5.356226458E0,-1.536887425E0,2.524513139E0,1.192955954E0,3.187214058E0
5.366252458E0,-2.650776744E-1,3.815170804E0,2.065235253E0,4.346376777E0
5.376279458E0,1.191473685E0,4.633922205E0,2.503797038E0,5.400170752E0
5.386305458E0,2.302287369E0,4.674755066E0,2.843690422E0,5.936365662E0
5.396332458E0,2.428517645E0,3.830790471E0,2.984836945E0,5.429724226E0
5.406358458E0,1.139018313E0,2.408118756E0,2.583974644E0,3.711242868E0
5.416385458E0,-8.037190872E-1,1.276596866E0,2.117672937E0,2.600038960E0
5.426412458E0,-2.244849000E0,8.000233546E-1,1.944678968E0,3.075899981E0
5.436438458E0,-2.868075650E0,7.018503579E-1,1.924167082E0,3.524325583E0
5.446465458E0,-2.768865942E0,6.771777391E-1,1.800947099E0,3.371735272E0
5.456491458E0,-2.080810043E0,8.185663372E-1,1.521102135E0,2.704361845E0
5.466518458E0,-8.054001617E-1,1.133476322E0,1.115735870E0,1.782779999E0
5.476544458E0,5.147251314E-1,1.350037310E0,5.910925452E-1,1.561067934E0
5.486571458E0,1.447425610E0,1.301533779E0,3.871368393E-2,1.946928304E0
5.496598458E0,2.138824947E0,9.666435653E-1,-4.798581845E-1,2.395670222E0
5.506624458E0,2.711739814E0,3.170442188E-1,-9.479500169E-1,2.890096727E0
5.516651458E0,3.148606346E0,-5.345676577E-1,-1.355290594E0,3.469336694E0
5.526677458E0,3.382503158E0,-1.289689074E0,-1.639888029E0,3.974148747E0
5.536704458E0,3.269713876E0,-1.846927848E0,-1.777792563E0,4.154842682E0
5.546730458E0,2.913848823E0,-2.177728227E0,-1.783163377E0,4.051257437E0
5.556757458E0,2.489602337E0,-2.386413599E0,-1.663291802E0,3.828789532E0
5.566784458E0,2.097829533E0,-2.488335538E0,-1.513380010E0,3.589292626E0
5.576810458E0,1.953707947E0,-2.500116216E0,-1.342864092E0,3.445408510E0
5.586837458E0,2.030056795E0,-2.419797108E0,-1.185620037E0,3.373758069E0
5.596863458E0,2.240357169E0,-2.225261997E0,-1.024629818E0,3.319767682E0
5.606890458E0,2.520517736E0,-1.914035465E0,-7.982134952E-1,3.263998499E0
5.616917458E0,2.771893045E0,-1.563803912E0,-6.453305867E-1,3.247356663E0
5.626943458E0,3.058399596E0,-1.210991106E0,-5.005627365E-1,3.327291781E0
5.636970458E0,3.205409707E0,-9.343721974E-1,-3.515236415E-1,3.357271461E0
5.646996458E0,3.301691129E0,-7.991073883E-1,-2.902430673E-1,3.409395543E0
5.657023458E0,3.557164752E0,-5.273293895E-1,-3.309718479E-1,3.611237976E0
5.667049458E0,3.433642321E0,-5.567461467E-1,-6.215585853E-1,3.533581885E0
5.677076458E0,3.000009885E0,-8.558642641E-1,-1.056714806E0,3.293813767E0
5.687102458E0,2.335514756E0,-1.250354269E0,-1.338182811E0,2.967953539E0
5.697129458E0,1.530761881E0,-1.465751953E0,-1.475323260E0,2.582293447E0
5.707156458E0,6.825472373E-1,-1.500880855E0,-1.526592232E0,2.246997534E0
5.717182458E0,-1.758871704E-1,-1.385918164E0,-1.608316572E0,2.130349185E0
5.727209458E0,-1.010626906E0,-1.075219343E0,-1.722898464E0,2.268444951E0
5.737235458E0,-1.728933960E0,-6.682002166E-1,-1.823154385E0,2.599922322E0
5.747262458E0,-2.057757395E0,-1.271444884E-1,-1.901866094E0,2.804928851E0
5.757289458E0,-1.733574311E0,5.042805424E-1,-2.009358968E0,2.701314905E0
5.767315458E0,-1.395744994E0,1.149974534E0,-2.002484250E0,2.698238071E0
5.777342458E0,-2.172776220E0,1.616848391E0,-1.682930260E0,3.188637559E0
5.787368458E0,-3.839344363E0,1.582050149E0,-1.198521480E0,4.322025167E0
5.797395458E0,-5.723719534E0,9.541670689E-1,-9.657261372E-1,5.882518770E0
5.807421458E0,-7.143598911E0,-3.834019303E-3,-1.113483084E0,7.229859244E0
5.817448458E0,-7.657322999E0,-1.016681406E0,-1.580122322E0,7.884479891E0
5.827475458E0,-7.583209541E0,-1.351834744E0,-2.310053056E0,8.041695669E0
5.837501458E0,-7.126845469E0,-7.756194153E-1,-2.919696039E0,7.740680640E0
5.847528458E0,-6.355329922E0,2.857917282E-1,-3.184666709E0,7.114351508E0
5.857554458E0,-5.800363668E0,1.246403891E0,-3.020654064E0,6.657483933E0
5.867581458E0,-4.986937618E0,2.291758872E0,-2.084014317E0,5.870674680E0
5.877607458E0,-3.007720608E0,3.255889304E0,-7.598111755E-1,4.497167046E0
5.887634458E0,-6.942171103E-1,4.014935079E0,1.797011630E-1,4.078471968E0
5.897660458E0,1.114119115E0,4.596548265E0,9.207812217E-1,4.818439105E0
5.907687458E0,2.189532586E0,4.510830714E0,1.853540465E0,5.345770191E0
5.917714458E0,2.529151150E0,3.573724651E0,2.771921697E0,5.181859060E0
5.927740458E0,2.346930860E0,2.268843049E0,3.650676933E0,4.897262022E0
5.937767458E0,1.769557491E0,1.658073893E0,4.700926911E0,5.289542189E0
5.947793458E0,9.044835699E-1,1.282095003E0,5.752311249E0,5.962461139E0
5.957820458E0,1.972622520E-1,5.340645048E-1,5.946811277E0,5.974002147E0
5.967846458E0,5.384116173E-2,-1.873673013E-1,4.847959827E0,4.851877972E0
5.977873458E0,1.132020950E-3,-6.432714897E-1,3.292989303E0,3.355231444E0
5.987900458E0,1.712392187E-1,-8.188586980E-1,2.141469643E0,2.299074742E0
5.997926458E0,5.048532772E-1,-1.004683211E0,1.392868603E0,1.790069309E0
6.007953458E0,6.103820711E-1,-1.165564672E0,9.470605092E-1,1.621120257E0
6.017979458E0,8.170519084E-1,-1.146460065E0,7.206237209E-1,1.581531867E0
6.028006458E0,1.052652599E0,-8.243115190E-1,6.906047004E-1,1.504826178E0
6.038032458E0,1.263134821E0,-4.754783276E-1,7.521112695E-1,1.545076237E0
6.048059458E0,1.696671948E0,-3.159925970E-1,6.948345762E-1,1.860468250E0
6.058086458E0,2.154400175E0,-4.018265069E-1,5.853448784E-1,2.268376795E0
6.068112458E0,2.471398786E0,-6.179366738E-1,3.670241717E-1,2.573784069E0
6.078139458E0,2.780950382E0,-9.030755603E-1,1.795127365E-1,2.929412112E0
6.088165458E0,3.164258173E0,-1.171596952E0,2.761552244E-2,3.374304642E0
6.098192458E0,3.636090469E0,-1.363075723E0,-2.132369913E-1,3.889035785E0
6.108218458E0,4.008154648E0,-1.602160185E0,-6.749347472E-1,4.368953863E0
6.118245458E0,3.852043930E0,-1.940120479E0,-1.070764788E0,4.443967501E0
6.128272458E0,3.620696504E0,-2.160673945E0,-1.266594472E0,4.402523893E0
6.138298458E0,3.303883250E0,-2.229520232E0,-1.264032515E0,4.181409235E0
6.148325958E0,3.326112610E0,-2.157158307E0,-9.080035937E-1,4.067041625E0
6.158351958E0,3.180121084E0,-1.994595479E0,-5.493583359E-1,3.793860279E0
6.168378958E0,2.613098456E0,-1.800959086E0,-3.842972852E-1,3.196783003E0
6.178404958E0,2.121177465E0,-1.782428090E0,-3.667725952E-1,2.794810525E0
6.188431958E0,1.691736898E0,-2.018931883E0,-3.373024821E-1,2.655528694E0
6.198457958E0,1.121286047E0,-2.330681156E0,-2.904933281E-1,2.602641624E0
6.208484958E0,7.541528249E-1,-2.480157330E0,-3.761673166E-1,2.619432900E0
6.218511958E0,7.135076594E-1,-2.521092225E0,-4.662857737E-1,2.661281949E0
6.228537958E0,6.123262703E-1,-2.339191486E0,-5.193913557E-1,2.473161468E0
6.238564958E0,3.332205409E-1,-2.011783369E0,-5.077488184E-1,2.101455952E0
6.248590958E0,3.014765918E-2,-1.539950196E0,-4.713503395E-1,1.610753436E0
6.258617958E0,-1.162537569E-1,-9.636755186E-1,-4.470107196E-1,1.068645884E0
6.268643958E0,-2.570015001E-1,-4.366674337E-1,-5.248596717E-1,7.295244298E-1
6.278670958E0,-7.795262325E-1,2.208370560E-1,-5.203204782E-1,9.628933235E-1
6.288697958E0,-1.346813155E0,7.902237135E-1,-4.227567615E-1,1.617739927E0
6.298723958E0,-1.746919996E0,1.147318436E0,-2.197155601E-1,2.101509931E0
6.308750958E0,-1.993470767E0,1.213962076E0,8.288398951E-2,2.335486968E0
6.318776958E0,-2.269835322E0,8.736091018E-1,2.628222571E-1,2.446307583E0
6.328803958E0,-2.902036278E0,4.243581676E-1,2.290968329E-1,2.941832724E0
6.338829958E0,-3.764800549E0,-6.970085710E-2,-1.257619143E-2,3.765466710E0
6.348856958E0,-4.813713269E0,-8.163993591E-1,-4.261221264E-1,4.901012489E0
6.358883958E0,-5.888809236E0,-1.377165467E0,-8.039827967E-1,6.100905448E0
6.368909958E0,-6.632231836E0,-1.484875857E0,-9.348773968E-1,6.860419169E0
6.378936958E0,-7.000087189E0,-8.618933281E-1,-7.564846945E-1,7.093401854E0
6.388962958E0,-6.833025806E0,7.450522184E-2,-6.029033361E-1,6.859977050E0
6.398989958E0,-6.004682339E0,4.450201812E-1,-8.022578681E-1,6.074361748E0
6.409015958E0,-4.571837347E0,6.410627040E-1,-6.698922546E-1,4.664913048E0
6.419042958E0,-3.039205526E0,1.146893343E0,-8.915381268E-2,3.249628128E0
6.429068958E0,-1.660982298E0,2.053832451E0,9.281652318E-1,2.799746529E0
6.439095958E0,-1.689307380E-1,2.951063427E0,2.137018596E0,3.647487001E0
6.449122958E0,1.288718144E0,3.514794365E0,3.196007676E0,4.922300169E0
6.459148958E0,2.487989675E0,3.690414903E0,3.941144387E0,5.944903183E0
6.469175958E0,3.235637473E0,3.618381591E0,4.304351789E0,6.487640520E0
6.479201958E0,2.932610199E0,3.134589108E0,4.249369251E0,6.040115105E0
6.489228958E0,1.523828838E0,2.435342223E0,3.828241670E0,4.786269983E0
6.499254958E0,-1.314781523E-1,2.109324867E0,3.322432373E0,3.937650920E0
6.509281958E0,-1.310468616E0,1.999637241E0,2.755310049E0,3.647959780E0
6.519308958E0,-1.706025739E0,1.888414428E0,2.145627598E0,3.328716068E0
6.529334958E0,-1.391595810E0,1.686550125E0,1.413316170E0,2.603546201E0
6.539361958E0,-8.403062850E-1,1.528295818E0,6.593552797E-1,1.864551460E0
6.549387958E0,-2.535463804E-1,1.438422652E0,-2.711149246E-2,1.460849248E0
6.559414958E0,4.916678059E-1,1.208141173E0,-6.554471469E-1,1.459778506E0
6.569440958E0,1.307722764E0,6.178802481E-1,-1.200504709E0,1.879661242E0
6.579467958E0,1.942400016E0,-2.357366386E-1,-1.564091011E0,2.504969117E0
6.589493958E0,2.494546158E0,-1.152252901E0,-1.784232248E0,3.276267999E0
6.599520958E0,2.953568375E0,-1.954002646E0,-1.932327018E0,4.034300458E0
6.609547958E0,3.288008060E0,-2.568522500E0,-1.986046119E0,4.620896452E0
6.619573958E0,3.392349284E0,-2.779866601E0,-1.857002162E0,4.762787946E0
6.629600958E0,3.245511081E0,-2.751734769E0,-1.664442095E0,4.568999224E0
6.639626958E0,2.973660577E0,-2.507780454E0,-1.442542015E0,4.148800730E0
6.649653958E0,2.720150449E0,-2.296595397E0,-1.322948036E0,3.797862608E0
6.659679958E0,2.591160872E0,-2.101672323E0,-1.324643437E0,3.589682640E0
6.669706958E0,2.585530588E0,-1.824022843E0,-1.318331952E0,3.427831222E0
6.679732958E0,2.703558975E0,-1.532786480E0,-1.307508902E0,3.371682822E0
6.689759958E0,2.993184430E0,-1.245205504E0,-1.314965418E0,3.498403040E0
6.699786958E0,3.378815319E0,-9.786774275E-1,-1.297784544E0,3.749459586E0
6.709812958E0,3.718050306E0,-7.404057285E-1,-1.248930180E0,3.991481594E0
6.719839958E0,3.854436026E0,-5.444155383E-1,-1.143288535E0,4.057114003E0
6.729865958E0,3.676186581E0,-3.225411862E-1,-1.055124363E0,3.838185511E0
6.739892958E0,3.175906996E0,-2.574739552E-1,-1.055027884E0,3.356450792E0
6.749918958E0,2.337486438E0,-5.665025184E-1,-1.204360510E0,2.689842409E0
6.759945958E0,1.300162314E0,-8.774094996E-1,-1.346630722E0,2.067288991E0
6.769972958E0,2.833970010E-1,-9.574298152E-1,-1.452463278E0,1.762564974E0
6.779998958E0,-5.333128452E-1,-1.040199492E0,-1.515826485E0,1.914201532E0
6.790025958E0,-1.323458791E0,-1.096927131E0,-1.580336330E0,2.335006471E0
6.800051958E0,-2.134850010E0,-1.036394124E0,-1.718898384E0,2.930240433E0
6.810078958E0,-2.679151527E0,-7.839160296E-1,-1.924700787E0,3.390700572E0
6.820104958E0,-2.422965129E0,-3.799459335E-1,-2.089481171E0,3.221963763E0
6.830131958E0,-1.807064456E0,1.552552700E-1,-2.005171046E0,2.703756104E0
6.840157958E0,-2.153565193E0,7.476969141E-1,-1.591647184E0,2.780329922E0
6.850184958E0,-3.862030390E0,1.142273166E0,-8.867964734E-1,4.123890724E0
6.860211958E0,-5.486986822E0,1.021244280E0,-2.968435505E-1,5.589103717E0
6.870237958E0,-6.581971509E0,2.454985651E-1,-4.349505450E-1,6.600893914E0
6.880264958E0,-6.784535431E0,-9.325636536E-1,-1.371299540E0,6.984272218E0
6.890290958E0,-6.636392714E0,-1.507677659E0,-2.567207753E0,7.273606796E0
6.900317958E0,-6.385400982E0,-8.956791249E-1,-3.566134381E0,7.368371681E0
6.910343958E0,-5.907287607E0,3.972495988E-1,-3.823815327E0,7.048079013E0
6.920370958E0,-6.269197512E0,1.555592375E0,-3.191965204E0,7.204952945E0
6.930396958E0,-6.268808087E0,2.745443750E0,-1.686455839E0,7.048372118E0
6.940423958E0,-3.992660696E0,4.152967376E0,5.357218981E-2,5.761193230E0
6.950450958E0,-1.145695834E0,5.187192475E0,1.472450231E0,5.512503460E0
6.960476958E0,8.652195168E-1,5.339358076E0,2.754007290E0,6.069753341E0
6.970503958E0,2.259297470E0,4.071488180E0,3.752162962E0,5.979980598E0
6.980529958E0,3.139844878E0,2.101299563E0,4.396555071E0,5.796876935E0
6.990556958E0,3.333229256E0,1.095337566E0,5.128059583E0,6.213467369E0
7.000582958E0,2.580218393E0,1.438985739E0,6.220075053E0,6.886039542E0
7.010609958E0,1.587982734E0,1.831808411E0,6.715520160E0,7.139707434E0
7.020635958E0,8.192563087E-1,1.738338037E0,5.869003547E0,6.175613546E0
7.030662958E0,6.066375142E-1,1.292656536E0,4.088521703E0,4.330701988E0
7.040688958E0,8.733085549E-1,7.364372233E-1,2.566479482E0,2.809239141E0
7.050715958E0,1.314431859E0,2.467218027E-1,1.485442744E0,1.998785358E0
7.060742958E0,1.629631866E0,-2.310878098E-1,7.306999353E-1,1.800839801E0
7.070768958E0,1.701864275E0,-5.939820930E-1,3.076784411E-1,1.828612250E0
7.080795958E0,1.403043489E0,-7.445262614E-1,1.961454338E-1,1.600413514E0
7.090821958E0,7.627108097E-1,-7.167312294E-1,3.246629946E-1,1.095827311E0
7.100848958E0,1.611913633E-1,-6.443853843E-1,4.984084761E-1,8.304373475E-1
7.110874958E0,4.416986704E-3,-5.964610201E-1,5.947154801E-1,8.423014665E-1
7.120901958E0,4.535743654E-1,-5.600018764E-1,5.655508840E-1,9.160674696E-1
7.130927958E0,1.349125729E0,-5.744477150E-1,3.287326567E-1,1.502729373E0
7.140954958E0,2.387608770E0,-6.885222146E-1,-7.175936937E-2,2.485938029E0
7.150981083E0,3.283002259E0,-9.865691221E-1,-5.057116485E-1,3.465135890E0
7.161007083E0,3.880311710E0,-1.356776518E0,-8.850187737E-1,4.204868573E0
7.171034083E0,4.227366763E0,-1.623131517E0,-1.080970665E0,4.655500322E0
7.181060083E0,4.325645594E0,-1.845516331E0,-1.157111353E0,4.843144331E0
7.191087083E0,4.111110082E0,-2.040729426E0,-1.135198035E0,4.728052165E0
7.201113083E0,3.617729042E0,-2.033252884E0,-9.591985980E-1,4.259359419E0
7.211140083E0,3.175046870E0,-1.942403817E0,-7.056925634E-1,3.788384512E0
7.221166083E0,2.737471656E0,-1.856011206E0,-4.710728891E-1,3.340724222E0
7.231193083E0,2.231714984E0,-1.709747491E0,-2.950509404E-1,2.826807972E0
7.241220083E0,1.832924352E0,-1.627231877E0,-2.374549891E-1,2.462494697E0
7.251246083E0,1.579061637E0,-1.703193055E0,-3.491891406E-1,2.348666705E0
7.261273083E0,1.486046469E0,-1.977391801E0,-6.018021592E-1,2.545697995E0
7.271299083E0,1.404988858E0,-2.305638700E0,-8.829757565E-1,2.840705844E0
7.281326083E0,1.292774942E0,-2.557485588E0,-1.156019385E0,3.090045372E0
7.291352083E0,9.159534681E-1,-2.514830734E0,-1.264783882E0,2.960240302E0
7.301379083E0,3.647586679E-1,-2.204672489E0,-1.156649423E0,2.516240759E0
7.311405083E0,-3.999144673E-2,-1.854703476E0,-9.083352770E-1,2.065574321E0
7.321432083E0,-3.245327479E-1,-1.525152647E0,-6.689594775E-1,1.696737718E0
7.331459083E0,-7.158342665E-1,-1.001179267E0,-5.151328285E-1,1.334219043E0
7.341485083E0,-1.121873108E0,-2.410622826E-1,-2.640655214E-1,1.177472247E0
7.351512083E0,-1.347606622E0,4.796941701E-1,6.241113335E-2,1.431797910E0
7.361538083E0,-1.443400971E0,9.994025910E-1,3.922239169E-1,1.798902861E0
7.371565083E0,-1.677173238E0,1.142454430E0,6.447422107E-1,2.129273282E0
7.381591083E0,-2.241586838E0,7.669655362E-1,9.523114550E-1,2.553398675E0
7.391618083E0,-3.192092673E0,2.341809869E-1,7.790879837E-1,3.294127268E0
7.401644083E0,-4.262554722E0,-4.226721230E-1,3.928539544E-1,4.301436819E0
7.411671083E0,-5.210602972E0,-1.276237262E0,1.252935523E-1,5.366084546E0
7.421697083E0,-6.138827407E0,-1.780067276E0,-6.770977785E-1,6.427464729E0
7.431724083E0,-7.067230182E0,-1.742001902E0,-1.297191198E0,7.393444263E0
7.441751083E0,-7.357886501E0,-5.223981401E-1,-2.316297151E0,7.731534522E0
7.451777083E0,-6.304611173E0,1.160308025E0,-2.426326693E0,6.854305069E0
7.461804083E0,-4.786941792E0,1.611070172E0,-1.221998051E0,5.196502483E0
7.471830083E0,-3.364224762E0,1.605948304E0,1.398990199E-2,3.727904763E0
7.481857083E0,-2.155436302E0,2.013518238E0,1.216194543E0,3.190500041E0
7.491883083E0,-9.265766895E-1,2.675019008E0,2.463052178E0,3.752452143E0
7.501910083E0,4.820011890E-1,3.139807163E0,3.671673115E0,4.855089868E0
7.511936083E0,1.823632541E0,3.188741342E0,4.534773016E0,5.835912379E0
7.521963083E0,2.596122234E0,2.888231879E0,4.729289415E0,6.119469946E0
7.531989083E0,2.305688694E0,2.355437974E0,4.372003489E0,5.475281081E0
7.542016083E0,8.043698823E-1,1.769807167E0,3.612841939E0,4.102664402E0
7.552043083E0,-6.484100229E-1,1.796213778E0,2.923542045E0,3.491979035E0
7.562069083E0,-1.567416322E0,2.264711699E0,2.474761519E0,3.702722996E0
7.572096083E0,-1.679898625E0,2.648530244E0,2.154428680E0,3.805040707E0
7.582122083E0,-1.072609146E0,2.615217779E0,1.493887878E0,3.197116733E0
7.592149083E0,-3.831674570E-1,2.405809106E0,6.789668410E-1,2.528978198E0
7.602175083E0,2.630820197E-1,2.182543701E0,-4.218371406E-2,2.198747057E0
7.612202083E0,8.949210334E-1,1.871549889E0,-7.284841329E-1,2.198697745E0
7.622228083E0,1.518502024E0,1.278589012E0,-1.269710892E0,2.356438841E0
7.632255083E0,2.119297585E0,4.186790594E-1,-1.708305276E0,2.754091742E0
7.642281083E0,2.580624189E0,-6.243586707E-1,-2.050481412E0,3.354686122E0
7.652308083E0,2.821444690E0,-1.581053783E0,-2.235923956E0,3.931874507E0
7.662335083E0,2.952229947E0,-2.407316810E0,-2.230159332E0,4.414118999E0
7.672361083E0,2.960434175E0,-2.852237589E0,-1.939026757E0,4.545245267E0
7.682388083E0,2.975226461E0,-3.021058692E0,-1.678713248E0,4.560355938E0
7.692414083E0,2.821074561E0,-2.968148114E0,-1.509219131E0,4.364184608E0
7.702441083E0,2.591982406E0,-2.673425349E0,-1.346947056E0,3.959778057E0
7.712467083E0,2.517635643E0,-2.356926968E0,-1.264531721E0,3.673232151E0
7.722494083E0,2.562652772E0,-2.004880731E0,-1.189763667E0,3.464429760E0
7.732520083E0,2.689432102E0,-1.618715407E0,-1.094988341E0,3.324497566E0
7.742547083E0,2.916251444E0,-1.302640072E0,-1.099575920E0,3.377937366E0
7.752573083E0,3.218860642E0,-9.706331205E-1,-1.080692922E0,3.531443002E0
7.762600083E0,3.532803497E0,-7.033361354E-1,-1.051526718E0,3.752477942E0
7.772627083E0,3.733225000E0,-5.037048841E-1,-9.398793975E-1,3.882532781E0
7.782653083E0,3.766314978E0,-3.329039142E-1,-8.368207598E-1,3.872495644E0
7.792680083E0,3.562593307E0,-3.204902753E-1,-9.355264378E-1,3.697295607E0
7.802706083E0,3.007021281E0,-4.693080533E-1,-1.177272845E0,3.263188377E0
7.812733083E0,2.160294753E0,-6.425136906E-1,-1.430490319E0,2.669456839E0
7.822759083E0,1.376781889E0,-8.140762603E-1,-1.588433554E0,2.254189363E0
7.832786083E0,5.999523926E-1,-9.746434334E-1,-1.698102177E0,2.047785071E0
7.842812083E0,-3.317271620E-1,-9.784403229E-1,-1.809110981E0,2.083331687E0
7.852839083E0,-1.278181461E0,-8.499749485E-1,-1.936778065E0,2.471298147E0
7.862865083E0,-2.020626991E0,-6.443660885E-1,-2.133237932E0,3.008129846E0
7.872892083E0,-2.399442950E0,-3.029986221E-1,-2.290073705E0,3.330701459E0
7.882919083E0,-2.198388779E0,2.391902965E-1,-2.285694871E0,3.180334301E0
7.892945083E0,-2.083513795E0,9.723995644E-1,-1.908934647E0,2.988414652E0
7.902972083E0,-3.548527245E0,1.676261657E0,-1.032465818E0,4.058064122E0
7.912998083E0,-5.798828189E0,1.879813174E0,-1.659179601E-1,6.098166503E0
7.923025083E0,-7.751519305E0,1.214009146E0,3.551247954E-2,7.846090165E0
7.933051083E0,-8.376897145E0,-1.494855300E-1,-7.752337915E-1,8.414020390E0
7.943078083E0,-7.657453977E0,-1.517031742E0,-2.016680120E0,8.062566925E0
7.953104083E0,-7.024648418E0,-1.880135063E0,-3.271082125E0,7.973742630E0
7.963131083E0,-6.291549663E0,-1.098035471E0,-4.055979609E0,7.565728626E0
7.973157083E0,-5.097996708E0,2.728457004E-1,-4.021381634E0,6.498886479E0
7.983184083E0,-5.184378210E0,2.037293310E0,-3.115885912E0,6.382561121E0
7.993211083E0,-4.565980775E0,3.733553906E0,-1.527974514E0,6.092808164E0
8.003237083E0,-2.019835863E0,4.903254021E0,-9.038172796E-2,5.303753932E0
8.013264083E0,4.174578685E-1,5.876551718E0,1.212367833E0,6.014812294E0
8.023290083E0,1.968976781E0,6.052959291E0,2.823794686E0,6.963404495E0
8.033317083E0,3.115492394E0,4.464626893E0,4.138731744E0,6.838734284E0
8.043343083E0,3.503958013E0,1.941863534E0,4.982407195E0,6.393194600E0
8.053370083E0,2.562119506E0,5.591967148E-1,5.776388914E0,6.343802189E0
8.063396083E0,1.126407623E0,6.319667754E-1,6.606152669E0,6.731227914E0
8.073423083E0,4.987207174E-2,1.017706423E0,6.807745369E0,6.883575422E0
8.083449083E0,-6.198340952E-2,9.611120993E-1,5.296116747E0,5.382976036E0
8.093476083E0,4.285827810E-1,6.736045057E-1,3.217613431E0,3.315186634E0
8.103502083E0,1.244917236E0,3.797857198E-1,1.851145737E0,2.262917731E0
8.113529083E0,2.011759104E0,-8.902385831E-2,1.022116977E0,2.258278781E0
8.123556083E0,2.508673616E0,-5.327035654E-1,3.970420226E-1,2.595160644E0
8.133582083E0,2.471035089E0,-9.757432947E-1,2.229601800E-2,2.656800049E0
8.143609208E0,1.713911878E0,-1.193524596E0,-2.917848319E-2,2.088742749E0
8.153635208E0,7.287957895E-1,-1.368576784E0,1.547453928E-1,1.558233568E0
8.163662208E0,-7.867428660E-2,-1.464179052E0,3.869324791E-1,1.516484976E0
8.173688208E0,-3.476292497E-1,-1.370843749E0,5.796021818E-1,1.528396993E0
8.183715208E0,1.198141265E-1,-1.134372993E0,5.504368548E-1,1.266545792E0
8.193741208E0,1.177359676E0,-9.305571815E-1,2.836256272E-1,1.527270759E0
8.203768208E0,2.423085582E0,-8.940956989E-1,-1.014415902E-1,2.584771025E0
8.213794208E0,3.420691908E0,-9.564828587E-1,-4.829525310E-1,3.584583063E0
8.223821208E0,4.017768055E0,-1.062221860E0,-7.466042157E-1,4.222344524E0
8.233847208E0,4.301566175E0,-1.185474734E0,-9.312673259E-1,4.558078623E0
8.243874208E0,4.337823005E0,-1.315352796E0,-9.832854719E-1,4.638287585E0
8.253901208E0,4.010593522E0,-1.216783065E0,-8.540142050E-1,4.277237623E0
8.263927208E0,3.640546632E0,-1.207425474E0,-6.029929447E-1,3.882661013E0
8.273954208E0,3.234562755E0,-1.370851935E0,-3.268710494E-1,3.528239777E0
8.283980208E0,2.843339004E0,-1.398392321E0,-1.749466458E-1,3.173434118E0
8.294007208E0,2.176189240E0,-1.507009614E0,-1.924630035E-1,2.654038355E0
8.304033208E0,1.282725917E0,-1.902601528E0,-2.640644981E-1,2.309763713E0
8.314060208E0,7.490581459E-1,-2.527099070E0,-5.631109871E-1,2.695257279E0
8.324086208E0,1.013865094E0,-2.975185238E0,-8.920338245E-1,3.267319081E0
8.334113208E0,1.081409206E0,-3.261083971E0,-1.302911675E0,3.674465045E0
8.344139208E0,9.735982436E-1,-3.143682405E0,-1.428678267E0,3.587722703E0
8.354166208E0,5.995208681E-1,-2.722283514E0,-1.175185389E0,3.025113799E0
8.364192208E0,1.921301508E-1,-2.220760226E0,-7.417888874E-1,2.349242586E0
8.374219208E0,-7.749899626E-2,-1.689975132E0,-3.280346453E-1,1.723261086E0
8.384246208E0,-2.421045488E-1,-1.023833720E0,-1.473498344E-3,1.052070468E0
8.394272208E0,-4.700716996E-1,-9.474769771E-2,1.529970753E-1,5.033414686E-1
8.404299208E0,-8.544208789E-1,9.429255044E-1,3.177283430E-1,1.311523864E0
8.414325208E0,-1.241355697E0,1.804322404E0,4.690238786E-1,2.239760412E0
8.424352208E0,-1.675174659E0,2.219366249E0,5.971088916E-1,2.843999950E0
8.434378208E0,-2.135907186E0,2.028827711E0,7.151675378E-1,3.031452786E0
8.444405208E0,-2.953301741E0,1.394926092E0,6.506921911E-1,3.330346875E0
8.454431208E0,-4.163820977E0,5.531609264E-1,3.515357745E-1,4.215088320E0
8.464458208E0,-5.359829178E0,-3.492308021E-1,-1.126733606E-1,5.372376221E0
8.474484208E0,-6.002486125E0,-1.100150994E0,-5.992070188E-1,6.131820361E0
8.484511208E0,-6.192290838E0,-1.432690334E0,-1.352668849E0,6.498213634E0
8.494537208E0,-6.604064628E0,-1.151453587E0,-2.464999593E0,7.142530222E0
8.504564208E0,-6.767275620E0,-2.864340448E-1,-3.131773966E0,7.462310095E0
8.514590208E0,-5.752262717E0,3.151564452E-1,-2.698171935E0,6.361444942E0
8.524617208E0,-3.827068718E0,2.855440986E-1,-1.623122307E0,4.166835301E0
8.534644208E0,-2.213554702E0,6.326485607E-1,-3.916159527E-1,2.335258374E0
8.544670208E0,-1.118874071E0,1.402471339E0,8.776846111E-1,1.997281983E0
8.554697208E0,-6.728040218E-2,2.312517657E0,1.993320786E0,3.053783280E0
8.564723208E0,1.136359584E0,3.011471012E0,3.246356004E0,4.571553135E0
8.574750208E0,2.222059477E0,3.436140836E0,4.160747973E0,5.835789224E0
8.584776208E0,2.818194222E0,3.621754558E0,4.634237663E0,6.521923295E0
8.594803208E0,2.447238675E0,3.586628287E0,4.686884530E0,6.389034841E0
8.604829208E0,8.638237864E-1,3.486924489E0,4.512939805E0,5.768141781E0
8.614856208E0,-8.169618613E-1,3.430595045E0,4.289217148E0,5.552818454E0
8.624882208E0,-1.708102670E0,3.087085743E0,3.681887616E0,5.099412665E0
8.634909208E0,-1.684267665E0,2.234305301E0,2.456570539E0,3.723387780E0
8.644935208E0,-1.298550237E0,1.448695625E0,1.195745661E0,2.283584773E0
8.654962208E0,-9.965099734E-1,1.081677593E0,3.049227946E-1,1.502010803E0
8.664988208E0,-6.257736969E-1,9.104614708E-1,-3.646330990E-1,1.163395937E0
8.675015208E0,1.192247272E-2,6.487757662E-1,-9.295653476E-1,1.133641864E0
8.685042208E0,7.711331391E-1,2.463902655E-1,-1.436910854E0,1.649262649E0
8.695068208E0,1.533958554E0,-3.326013207E-1,-1.804016887E0,2.391261051E0
8.705095208E0,2.283754619E0,-1.180191190E0,-2.014349566E0,3.265882818E0
8.715121208E0,2.876386882E0,-2.030228996E0,-2.083398313E0,4.090963187E0
8.725148208E0,3.277796482E0,-2.611699217E0,-1.998352315E0,4.643095364E0
8.735174208E0,3.457991297E0,-2.961003694E0,-1.903857071E0,4.934563651E0
8.745201208E0,3.429838707E0,-3.094971591E0,-1.787689853E0,4.953632780E0
8.755227208E0,3.170536913E0,-2.942048483E0,-1.664813686E0,4.634604427E0
8.765254208E0,2.914389691E0,-2.605615189E0,-1.518991583E0,4.194071198E0
8.775280208E0,2.835887312E0,-2.224331120E0,-1.344871879E0,3.846893052E0
8.785307208E0,2.899293349E0,-1.695450172E0,-1.075529246E0,3.526643783E0
8.795333208E0,3.009418640E0,-1.168912496E0,-8.755994940E-1,3.345090648E0
8.805360208E0,3.255997478E0,-7.445245072E-1,-8.179751837E-1,3.438738100E0
8.815386208E0,3.507540017E0,-4.927770227E-1,-7.684285095E-1,3.624382505E0
8.825413208E0,3.744225367E0,-3.347513419E-1,-7.128255817E-1,3.826147196E0
8.835440208E0,3.818006703E0,-1.989170140E-1,-6.546837929E-1,3.878834107E0
8.845466208E0,3.505026299E0,-2.678106630E-1,-6.681815055E-1,3.578183678E0
8.855493208E0,2.673706600E0,-5.575980860E-1,-8.497960237E-1,2.860380375E0
8.865519208E0,1.683556058E0,-7.324845055E-1,-1.025438342E0,2.102954670E0
8.875546208E0,6.809445155E-1,-7.690369123E-1,-1.111178550E0,1.513215443E0
8.885572208E0,-2.778392226E-1,-8.533265725E-1,-1.153656233E0,1.461603085E0
8.895599208E0,-1.189004406E0,-9.428269789E-1,-1.211269433E0,1.941604447E0
8.905625208E0,-1.973345236E0,-1.042136382E0,-1.393624209E0,2.631031755E0
8.915652208E0,-2.484570808E0,-1.064739086E0,-1.760118477E0,3.225643886E0
8.925678208E0,-2.736982829E0,-7.790075845E-1,-2.167433619E0,3.577107255E0
8.935705208E0,-2.716606452E0,-3.147749144E-1,-2.462081248E0,3.679793191E0
8.945731208E0,-2.531016412E0,3.276993075E-1,-2.481560077E0,3.559715063E0
8.955758208E0,-2.958208140E0,9.859914172E-1,-2.026597583E0,3.718907398E0
8.965784208E0,-4.433472344E0,1.366130309E0,-1.214988994E0,4.795642532E0
8.975811208E0,-5.872490827E0,1.344002398E0,-7.092017698E-1,6.065925989E0
8.985838208E0,-6.528350202E0,7.572664672E-1,-9.725067146E-1,6.643687092E0
8.995864208E0,-6.247043581E0,-2.753515247E-1,-1.784095423E0,6.502643189E0
9.005891208E0,-5.751744654E0,-1.039545481E0,-2.586202433E0,6.391530677E0
9.015917208E0,-4.979030428E0,-1.226672461E0,-3.225182651E0,6.057827372E0
9.025944208E0,-4.693276414E0,-5.994916320E-1,-3.465013218E0,5.864516205E0
9.035970208E0,-5.323070072E0,1.173633538E0,-2.698671287E0,6.082377610E0
9.045997208E0,-5.001593079E0,3.311374118E0,-1.103936627E0,6.099164529E0
9.056023208E0,-2.878294829E0,4.787854835E0,6.797013974E-1,5.627621969E0
9.066050208E0,-3.175254446E-1,5.494931434E0,2.252628720E0,5.947220362E0
9.076076208E0,1.794849622E0,5.237301943E0,3.592086078E0,6.599537802E0
9.086103208E0,3.320201075E0,3.665271291E0,4.427980346E0,6.638144226E0
9.096129208E0,4.007569926E0,1.555971567E0,4.742532189E0,6.401037088E0
9.106156208E0,3.361839682E0,2.763850200E-1,5.010227662E0,6.039928473E0
9.116182208E0,1.890861488E0,1.652589789E-1,5.334037694E0,5.661680477E0
9.126209208E0,6.728040218E-1,3.755192989E-1,5.274130046E0,5.330115172E0
9.136235208E0,1.895199537E-1,5.666030905E-1,4.506522486E0,4.545954442E0
9.146262250E0,4.751617008E-1,5.676734233E-1,3.397859993E0,3.477568732E0
9.156288250E0,1.033363804E0,4.943060696E-1,2.571792262E0,2.815367593E0
9.166315250E0,1.615298586E0,3.766904962E-1,2.063290615E0,2.647310601E0
9.176342250E0,2.093237130E0,1.158836281E-1,1.539404505E0,2.600930012E0
9.186368250E0,2.054810983E0,-1.502746117E-1,1.050541170E0,2.312675374E0
9.196395250E0,1.526544285E0,-2.814279512E-1,7.230560164E-1,1.712410333E0
9.206421250E0,8.409816384E-1,-3.646794382E-1,5.836126408E-1,1.086666887E0
9.216448250E0,3.928457683E-1,-5.236517832E-1,4.146906736E-1,7.749240882E-1
9.226474250E0,-2.970596051E-1,-1.202682213E0,4.859080061E-2,1.239778198E0
9.236501250E0,1.173717445E-1,-1.661902649E0,-4.436272283E-1,1.724094446E0
9.246527250E0,1.132351903E0,-1.589205387E0,-3.119664967E-1,1.976137062E0
9.256554250E0,2.093541185E0,-1.490782714E0,-1.852826227E-1,2.576757157E0
9.266580250E0,2.590502476E0,-1.663058059E0,-7.399280110E-1,3.166063588E0
9.276607250E0,3.181398116E0,-1.684812040E0,-1.108554904E0,3.766799644E0
9.286633250E0,3.706179289E0,-1.599910469E0,-1.093552703E0,4.182264452E0
9.296660250E0,3.799720706E0,-1.819635969E0,-1.220134105E0,4.386077945E0
9.306686250E0,3.531741058E0,-2.036525570E0,-1.422006594E0,4.317723249E0
9.316713250E0,2.951072783E0,-2.044055322E0,-1.249911343E0,3.801219685E0
9.326739250E0,2.378109968E0,-2.066879928E0,-9.434377205E-1,3.288992915E0
9.336766250E0,1.669316334E0,-2.038636123E0,-4.688952398E-1,2.676287916E0
9.346792250E0,7.532289648E-1,-2.111754970E0,-2.598900247E-1,2.257079031E0
9.356819250E0,3.285725892E-1,-2.235615369E0,-1.201510723E-1,2.262823967E0
9.366845250E0,1.828096890E-1,-2.311302606E0,-1.061692102E-1,2.320950456E0
9.376872250E0,3.864021367E-1,-2.256298725E0,-2.132646194E-1,2.299059013E0
9.386899250E0,7.373122591E-1,-2.099664389E0,-4.537679082E-1,2.271150640E0
9.396925250E0,8.769537091E-1,-1.810457010E0,-7.335345192E-1,2.141232188E0
9.406952250E0,7.421110690E-1,-1.442115753E0,-8.987930596E-1,1.854253394E0
9.416978250E0,5.548311836E-1,-1.073358759E0,-9.010758126E-1,1.507273793E0
9.427005250E0,4.321028048E-1,-6.987147886E-1,-8.222401428E-1,1.162322693E0
9.437031250E0,2.855014139E-1,-2.873617056E-1,-7.708220673E-1,8.707780811E-1
9.447058250E0,1.745177525E-1,1.735184634E-1,-6.749347472E-1,7.184024054E-1
9.457084250E0,8.418470263E-2,5.725333366E-1,-4.057903343E-1,7.067865881E-1
9.467111250E0,-2.022054881E-1,8.194390342E-1,8.477863356E-2,8.482657643E-1
9.477137250E0,-8.478182030E-1,9.163464010E-1,6.995491862E-1,1.431033017E0
9.487164250E0,-1.931060511E0,7.985638896E-1,1.079214015E0,2.351893253E0
9.497190250E0,-3.176005229E0,6.387963232E-1,1.162750261E0,3.441955567E0
9.507217250E0,-3.862815086E0,7.891168356E-1,1.405914472E0,4.185766510E0
9.517243250E0,-3.981875507E0,1.783307219E-1,1.024532462E0,4.115434505E0
9.527270250E0,-3.784644830E0,-6.316016167E-1,4.030327874E-1,3.858094415E0
9.537296250E0,-3.494183807E0,-9.397545594E-1,-1.951568158E-1,3.623609429E0
9.547323250E0,-2.811541845E0,-5.420368910E-1,-4.558239354E-1,2.899370104E0
9.557349250E0,-2.669213015E0,3.813039494E-1,-3.637852527E-1,2.720740805E0
9.567376250E0,-3.459786392E0,8.616211402E-1,-2.983430690E-1,3.577921387E0
9.577402250E0,-4.693757640E0,1.011109594E0,2.218784451E-2,4.801478491E0
9.587429250E0,-4.611292019E0,1.129573891E0,1.226044763E0,4.903380162E0
9.597456250E0,-2.975139922E0,1.667474169E0,2.754926180E0,4.384238351E0
9.607482250E0,-8.787657613E-1,2.600683940E0,3.809967659E0,4.695917352E0
9.617509250E0,1.298867741E0,3.026915263E0,4.009120023E0,5.188671967E0
9.627535250E0,2.764511520E0,2.869426649E0,3.518379586E0,5.315555300E0
9.637562250E0,2.835682075E0,2.424386295E0,2.697660888E0,4.603923979E0
9.647588250E0,1.552678415E0,2.041077335E0,1.691526690E0,3.072144120E0
9.657615250E0,-4.242915094E-2,1.995453266E0,1.052717357E0,2.256512309E0
9.667641250E0,-1.437844947E0,1.969111851E0,8.566638708E-1,2.584312783E0
9.677668250E0,-2.667729576E0,1.770823998E0,9.355333082E-1,3.335838919E0
9.687694250E0,-3.560663726E0,1.366327652E0,9.404402916E-1,3.928053636E0
9.697721250E0,-3.844060727E0,9.656995323E-1,6.648904002E-1,4.018887620E0
9.707747250E0,-3.070098705E0,6.864613634E-1,1.241814119E-1,3.148357712E0
9.717774250E0,-1.550908463E0,5.265996569E-1,-4.498871112E-1,1.698535449E0
9.727800250E0,-2.041730762E-2,3.002860987E-1,-9.329823142E-1,9.803288255E-1
9.737827250E0,1.315990727E0,-1.394063920E-1,-1.316352085E0,1.866560620E0
9.747853250E0,2.438833888E0,-7.654867753E-1,-1.565263962E0,2.997320805E0
9.757880250E0,3.264435010E0,-1.430353494E0,-1.706760149E0,3.951642350E0
9.767906250E0,3.650374632E0,-1.872404167E0,-1.787686783E0,4.475148752E0
9.777933250E0,3.626530856E0,-2.176302091E0,-1.838429505E0,4.611706830E0
9.787959250E0,3.295590144E0,-2.264540083E0,-1.820308984E0,4.393470267E0
9.797986250E0,2.761731754E0,-2.191744003E0,-1.691804141E0,3.910640012E0
9.808012250E0,2.398277600E0,-2.081041592E0,-1.549594886E0,3.533229948E0
9.818039250E0,2.306797326E0,-2.000651148E0,-1.355862890E0,3.341000314E0
9.828065250E0,2.398510904E0,-1.854139804E0,-1.128764636E0,3.234934091E0
9.838092250E0,2.538346481E0,-1.617341019E0,-8.871652865E-1,3.137842742E0
9.848118250E0,2.780991313E0,-1.350393990E0,-6.160527009E-1,3.152300357E0
9.858145250E0,3.153187054E0,-1.040811988E0,-4.429172301E-1,3.349933412E0
9.868172250E0,3.403974134E0,-7.864411497E-1,-3.793758300E-1,3.514179222E0
9.878198250E0,3.412299984E0,-6.535818851E-1,-3.872037899E-1,3.495838560E0
9.888225250E0,3.290390800E0,-5.863745731E-1,-6.426756585E-1,3.403459822E0
9.898251250E0,3.041937929E0,-7.023938566E-1,-1.003368465E0,3.279251709E0
9.908278250E0,2.610609881E0,-9.969336042E-1,-1.336089946E0,3.097466207E0
9.918304250E0,2.123069040E0,-1.197896267E0,-1.523777675E0,2.874765384E0
9.928331250E0,1.661214432E0,-1.179050691E0,-1.581542611E0,2.578967031E0
9.938357250E0,1.099153166E0,-1.127229742E0,-1.632375380E0,2.267914010E0
9.948384250E0,3.633956820E-1,-1.075438906E0,-1.669580774E0,2.018941610E0
9.958410250E0,-4.303948331E-1,-8.894398534E-1,-1.740355619E0,2.001294742E0
9.968437250E0,-1.121954969E0,-6.603058907E-1,-1.776933900E0,2.202789346E0
9.978463250E0,-1.635317114E0,-2.811607334E-1,-1.732923662E0,2.399236928E0
9.988490250E0,-1.819597962E0,2.000458190E-1,-1.514538782E0,2.375875164E0
9.998516250E0,-2.266644496E0,8.019000185E-1,-1.132560210E0,2.657708325E0
1.000854325E1,-3.586411355E0,1.335476281E0,-5.824377890E-1,3.871056326E0
1.001856925E1,-5.565137199E0,1.345213649E0,-1.069305177E-1,5.726411262E0
1.002859625E1,-7.545194453E0,6.032253715E-1,-1.245600191E-1,7.570294273E0
1.003862225E1,-8.656753072E0,-6.200668144E-1,-8.320371526E-1,8.718723670E0
1.004864925E1,-8.373813323E0,-1.862853910E0,-1.721527292E0,8.749550302E0
1.005867525E1,-7.350069943E0,-2.782558951E0,-2.632836902E0,8.288425221E0
1.006870225E1,-6.752950526E0,-2.802385983E0,-3.471780201E0,8.093760916E0
1.007872825E1,-5.076286581E0,-1.589148376E0,-3.533263088E0,6.385767461E0
1.008875525E1,-3.036903477E0,7.000558475E-1,-2.968382295E0,4.303969606E0
1.009878125E1,-2.691538269E0,3.080281046E0,-1.830451710E0,4.481413063E0
1.010880825E1,-1.753808600E0,4.522307629E0,-9.350165606E-2,4.851376450E0
1.011883425E1,2.353919452E-1,5.218741127E0,1.608896762E0,5.466188536E0
1.012886125E1,2.092601538E0,5.793654572E0,3.290791042E0,6.983890047E0
1.013888725E1,3.411062713E0,5.742635862E0,4.840301728E0,8.248741498E0
1.014891500E1,4.186007652E0,4.689132785E0,5.864103581E0,8.596414203E0
1.015894100E1,3.598689923E0,2.978773675E0,6.334823152E0,7.871063850E0
1.016896800E1,1.290705612E0,1.618446435E0,6.351078411E0,6.679931648E0
1.017899500E1,-1.049603861E0,9.690412161E-1,5.896485461E0,6.067062711E0
1.018902100E1,-2.221789336E0,4.187202823E-1,4.703683873E0,5.218842449E0
1.019904800E1,-2.069924866E0,-2.124533182E-1,2.851204094E0,3.529743638E0
1.020907400E1,-9.176409745E-1,-5.615949503E-1,1.214008269E0,1.622118961E0
1.021910100E1,3.560925096E-1,-5.145953232E-1,3.710204512E-1,7.275069740E-1
1.022912700E1,1.272963406E0,-3.976475018E-1,1.416178089E-1,1.341124518E0
1.023915400E1,1.695779078E0,-3.601262113E-1,1.320874321E-1,1.738621482E0
1.024918000E1,1.499155927E0,-5.102037719E-1,3.045972508E-1,1.612623907E0
1.025920700E1,1.071126877E0,-8.888080618E-1,4.507747185E-1,1.463041491E0
1.026923300E1,7.463584864E-1,-1.307880054E0,5.248636186E-1,1.594704689E0
1.027926000E1,8.013053566E-1,-1.453950810E0,5.557614756E-1,1.750695305E0
1.028928600E1,1.217111387E0,-1.358688557E0,4.684695625E-1,1.883310504E0
1.029931300E1,1.858999425E0,-1.222670042E0,2.703020154E-1,2.241397795E0
1.030933900E1,2.649226062E0,-1.138706364E0,2.495577022E-2,2.883690986E0
1.031936600E1,3.528090641E0,-1.187567452E0,-2.597485220E-1,3.731649679E0
1.032939200E1,4.325328090E0,-1.365640897E0,-5.281076539E-1,4.566435792E0
1.033941900E1,4.807481892E0,-1.637235293E0,-7.780299300E-1,5.137874280E0
1.034944500E1,4.908451611E0,-1.817228671E0,-9.865088958E-1,5.326200997E0
1.035947200E1,4.703299711E0,-1.796129285E0,-1.082506874E0,5.149653359E0
1.036949800E1,4.463167428E0,-1.690528278E0,-9.941129074E-1,4.875039469E0
1.037952500E1,3.894312868E0,-1.440861526E0,-6.560131574E-1,4.203820632E0
1.038955100E1,3.056227355E0,-1.175318705E0,-2.566647005E-1,3.284475068E0
1.039957800E1,2.204581565E0,-1.038096541E0,-9.694683552E-3,2.436784416E0
1.040960400E1,1.549846024E0,-1.104437003E0,5.144365713E-2,1.903798897E0
1.041963100E1,1.156940029E0,-1.446069933E0,-2.071478471E-1,1.863474903E0
1.042965700E1,9.428664476E-1,-1.972637722E0,-6.456836124E-1,2.279737715E0
1.043968400E1,8.084225875E-1,-2.429644403E0,-1.002706560E0,2.749934445E0
1.044971000E1,6.892610103E-1,-2.698526569E0,-1.211425262E0,3.037215427E0
1.045973700E1,3.588260829E-1,-2.793515172E0,-1.153969790E0,3.043703246E0
1.046976300E1,-3.133493632E-1,-2.818019391E0,-7.595936590E-1,2.935371124E0
1.047979000E1,-7.582564008E-1,-2.124365075E0,-4.653974354E-1,2.303144484E0
1.048981600E1,-1.239809693E0,-1.071099103E0,-1.899118634E-1,1.649378028E0
1.049984300E1,-1.765118870E0,6.383142203E-2,1.492148039E-1,1.772564281E0
1.050986900E1,-1.792339997E0,1.246001310E0,5.233445120E-1,2.244747515E0
1.051989600E1,-1.784418190E0,2.018306231E0,8.585609999E-1,2.827513980E0
1.052992200E1,-1.998413419E0,2.203928431E0,1.083405153E0,3.166184367E0
1.053994900E1,-2.658394496E0,1.746353400E0,9.184125146E-1,3.310633330E0
1.054997500E1,-3.558177490E0,8.997631127E-1,6.547332019E-1,3.728119670E0
1.056000200E1,-4.631755520E0,-2.311056438E-1,4.009826075E-1,4.654820734E0
1.057002800E1,-5.560141338E0,-1.199108394E0,2.085374379E-1,5.691794137E0
1.058005500E1,-6.080057627E0,-2.069145140E0,-2.166755927E-1,6.426150533E0
1.059008100E1,-6.436665276E0,-2.564919738E0,-1.073956929E0,7.011622967E0
1.060010800E1,-6.850330641E0,-2.154025369E0,-2.325640563E0,7.548209006E0
1.061013400E1,-6.745032812E0,-6.005876926E-1,-3.881695746E0,7.805365787E0
1.062016100E1,-5.405477221E0,6.223814347E-1,-3.719707407E0,6.591112640E0
1.063018700E1,-3.118552242E0,1.433947778E-1,-2.146822915E0,3.788770087E0
1.064021400E1,-1.303188248E0,-1.091797954E-1,-8.265672286E-1,1.547072468E0
1.065024000E1,-3.080266428E-1,5.494929680E-1,4.407040590E-1,7.687932116E-1
1.066026700E1,3.120594674E-1,1.860935438E0,1.780562536E0,2.594391019E0
1.067029300E1,1.166027187E0,3.149229074E0,3.247371665E0,4.671475773E0
1.068032000E1,2.196708874E0,4.138136205E0,4.497856620E0,6.494645125E0
1.069034700E1,3.098114469E0,4.725105440E0,5.558350335E0,7.925919072E0
1.070037300E1,3.314857889E0,4.791398832E0,6.078419237E0,8.419796080E0
1.071039900E1,2.706258050E0,3.797049990E0,5.683136349E0,7.351153652E0
1.072042600E1,1.286652322E0,2.138730222E0,4.450420206E0,5.102536739E0
1.073045200E1,4.100359976E-2,1.194687607E0,3.070505671E0,3.294990872E0
1.074047900E1,-9.623610646E-1,1.039405440E0,1.976068722E0,2.431326815E0
1.075050500E1,-1.560094439E0,1.284441198E0,1.190376163E0,2.345352693E0
1.076053200E1,-1.570893661E0,1.685868047E0,5.783573096E-1,2.375785164E0
1.077055900E1,-1.113787578E0,1.926784734E0,8.525050387E-2,2.227170813E0
1.078058500E1,-1.924815685E-1,1.744014222E0,-3.833009197E-1,1.795982838E0
1.079061200E1,7.020781070E-1,1.261607236E0,-7.593033448E-1,1.631290304E0
1.080063800E1,1.641903418E0,5.033215991E-1,-1.235000358E0,2.115279024E0
1.081066500E1,2.595151012E0,-4.478476024E-1,-1.742893603E0,3.158014307E0
1.082069100E1,3.348684617E0,-1.420998826E0,-2.154208387E0,4.227710976E0
1.083071800E1,3.952018454E0,-2.226686963E0,-2.404107566E0,5.133840462E0
1.084074400E1,4.272216661E0,-2.747392042E0,-2.468930091E0,5.647620209E0
1.085077100E1,4.184038895E0,-3.046274517E0,-2.367579279E0,5.691344441E0
1.086079700E1,3.684475594E0,-2.978796186E0,-2.055316182E0,5.164582435E0
1.087082400E1,3.114264479E0,-2.747962731E0,-1.724257357E0,4.496999649E0
1.088085000E1,2.638373630E0,-2.485475373E0,-1.428879996E0,3.896190612E0
1.089087700E1,2.358859765E0,-2.192500340E0,-1.195081125E0,3.435039450E0
1.090090300E1,2.223349957E0,-1.893888299E0,-1.019666848E0,3.093512309E0
1.091093000E1,2.291922010E0,-1.584925517E0,-8.990368885E-1,2.927996366E0
1.092095600E1,2.499889344E0,-1.220254557E0,-7.937066075E-1,2.892825279E0
1.093098300E1,2.757161570E0,-8.450200179E-1,-7.453998354E-1,2.978526426E0
1.094100900E1,3.064266692E0,-4.684531903E-1,-7.637741259E-1,3.192574144E0
1.095103600E1,3.307527235E0,-2.234852600E-1,-8.444101533E-1,3.420922475E0
1.096106200E1,3.463635029E0,-1.863925704E-1,-1.050387680E0,3.624199785E0
1.097108900E1,3.227727944E0,-1.287548116E-1,-1.376999990E0,3.511543031E0
1.098111500E1,2.549540976E0,-1.042143399E-1,-1.704583523E0,3.068651952E0
1.099114200E1,1.557418168E0,-8.677034140E-2,-1.922526207E0,2.475719584E0
1.100116800E1,5.055602056E-1,-7.888507873E-2,-1.994283530E0,2.058878524E0
1.101119500E1,-6.023696315E-1,-1.306431699E-1,-2.085829439E0,2.174994542E0
1.102122100E1,-1.719977780E0,-2.825596797E-1,-2.170591115E0,2.783815606E0
1.103124800E1,-2.807343544E0,-4.406254140E-1,-2.234338630E0,3.614913228E0
1.104127400E1,-3.611659632E0,-4.473742703E-1,-2.271100075E0,4.289769759E0
1.105130100E1,-3.780096865E0,-2.813794193E-1,-2.198105189E0,4.381777392E0
1.106132700E1,-3.567240674E0,6.900650024E-2,-1.799993125E0,3.996241131E0
1.107135400E1,-4.278279054E0,5.208816648E-1,-1.069739625E0,4.440645476E0
1.108138000E1,-5.686845823E0,7.218931514E-1,-4.693112692E-1,5.751660474E0
1.109140700E1,-6.895335490E0,4.761978275E-1,-4.651521447E-1,6.927393623E0
1.110143300E1,-7.485313118E0,-1.646853670E-1,-1.264481727E0,7.593151373E0
1.111146000E1,-7.582748780E0,-7.659098214E-1,-2.344772653E0,7.973873319E0
1.112148600E1,-7.521357109E0,-3.251902673E-1,-3.175231350E0,8.170597016E0
1.113151300E1,-6.379835018E0,7.916907799E-1,-3.473715044E0,7.307240612E0
1.114153900E1,-5.106241867E0,1.824064943E0,-3.262410412E0,6.328051881E0
1.115156537E1,-5.127846159E0,2.637394806E0,-2.312601272E0,6.212791824E0
1.116159138E1,-3.975212020E0,3.729753216E0,-7.022704804E-1,5.496048897E0
1.117161837E1,-1.202599182E0,4.865176368E0,1.017431311E0,5.113839298E0
1.118164437E1,1.292122393E0,5.688531575E0,2.785871984E0,6.464522757E0
1.119167138E1,2.807581526E0,5.456231638E0,4.657102615E0,7.703348783E0
1.120169737E1,3.803852348E0,3.873050345E0,5.815144844E0,7.955232317E0
1.121172437E1,3.699283667E0,2.395632904E0,6.575561791E0,7.915918742E0
1.122175037E1,2.399723616E0,2.227081650E0,7.268570867E0,7.971868574E0
1.123177737E1,8.283300179E-1,2.443976806E0,7.191649575E0,7.640613644E0
1.124180337E1,4.467974424E-2,2.038537597E0,5.349241040E0,5.724684403E0
1.125183037E1,-2.971344495E-1,1.043691741E0,3.360008627E0,3.530897804E0
1.126185637E1,-1.253619647E-1,4.086122006E-1,2.011614385E0,2.056519386E0
1.127188338E1,4.708107877E-1,1.074121821E-1,1.233630648E0,1.324781020E0
1.128190937E1,1.116438121E0,-2.630738336E-1,8.096630743E-1,1.403992953E0
1.129193637E1,1.689430171E0,-7.359486884E-1,5.589175102E-1,1.925664446E0
1.130196238E1,1.845830911E0,-1.123618501E0,4.043481186E-1,2.198433008E0
1.131198937E1,1.423990554E0,-1.396943966E0,4.069257174E-1,2.035875753E0
1.132201537E1,7.667541593E-1,-1.617273484E0,4.602203107E-1,1.848049836E0
1.133204237E1,3.913810408E-1,-1.751852707E0,4.609243155E-1,1.853272309E0
1.134206837E1,6.058177346E-1,-1.666630708E0,3.606208858E-1,1.809618874E0
1.135209538E1,1.497792356E0,-1.449615977E0,6.494122356E-2,2.085422208E0
1.136212137E1,2.749916285E0,-1.340353151E0,-3.610598655E-1,3.080413994E0
1.137214837E1,3.745601217E0,-1.386939672E0,-7.320550275E-1,4.060669242E0
1.138217438E1,4.435695455E0,-1.432551463E0,-9.938717097E-1,4.766065341E0
1.139220137E1,4.904757925E0,-1.527309685E0,-1.217423920E0,5.279341453E0
1.140222737E1,5.109865386E0,-1.673970718E0,-1.337932988E0,5.541025800E0
1.141225437E1,4.905351418E0,-1.712280798E0,-1.303370828E0,5.356599068E0
1.142228037E1,4.408438075E0,-1.488817465E0,-1.107950887E0,4.783143200E0
1.143230738E1,3.960330856E0,-1.229308679E0,-7.423885193E-1,4.212666736E0
1.144233337E1,3.534757052E0,-9.742499158E-1,-2.708500457E-1,3.676551382E0
1.145236037E1,3.086863841E0,-8.749773502E-1,1.422510624E-2,3.208506832E0
1.146238638E1,2.679709352E0,-9.459666413E-1,7.321152538E-2,2.842719653E0
1.147241337E1,2.341918627E0,-1.144027331E0,-1.462249763E-1,2.610510129E0
1.148243937E1,2.002065005E0,-1.401472634E0,-4.812002666E-1,2.490771673E0
1.149246637E1,1.603497736E0,-1.706719803E0,-8.435047120E-1,2.489095754E0
1.150249237E1,1.060980788E0,-1.932566754E0,-1.143832911E0,2.483716614E0
1.151251938E1,4.440457428E-1,-2.068025690E0,-1.326625643E0,2.496766403E0
1.152254537E1,-3.133821076E-1,-1.993942053E0,-1.245945761E0,2.372002128E0
1.153257237E1,-1.097306616E0,-1.736572470E0,-1.057239155E0,2.310307422E0
1.154259838E1,-1.617397152E0,-1.510635180E0,-8.697312284E-1,2.377903406E0
1.155262537E1,-1.951321113E0,-1.221409090E0,-7.188692638E-1,2.411693859E0
1.156265137E1,-2.082301083E0,-6.502790853E-1,-4.906774338E-1,2.235979658E0
1.157267737E1,-1.959164568E0,9.886618406E-2,-1.068414938E-1,1.964564947E0
1.158270437E1,-1.875752867E0,7.472285521E-1,3.464391951E-1,2.048614030E0
1.159273038E1,-2.143225561E0,1.159573908E0,6.446916322E-1,2.520645702E0
1.160275737E1,-2.810160733E0,1.161954017E0,6.279778048E-1,3.105075942E0
1.161278337E1,-3.540343482E0,8.152720159E-1,3.576190715E-1,3.650560482E0
1.162281038E1,-4.301438706E0,2.341853723E-1,-4.716554180E-2,4.308067121E0
1.163283637E1,-5.144669768E0,-5.676304463E-1,-4.954684961E-1,5.199550017E0
1.164286337E1,-6.031236300E0,-1.341432547E0,-9.282492855E-1,6.247951610E0
1.165288937E1,-6.937098643E0,-1.753589622E0,-1.210399368E0,7.256960850E0
1.166291637E1,-7.713347511E0,-1.180326845E0,-1.022909275E0,7.869894833E0
1.167294238E1,-7.456175857E0,2.735476586E-1,-3.485171494E-1,7.469327342E0
1.168296937E1,-5.743860853E0,1.441589796E0,2.332316914E-1,5.926593935E0
1.169299537E1,-4.009819935E0,2.054450502E0,7.602140486E-1,4.569173686E0
1.170302238E1,-2.496248868E0,2.420187702E0,1.460462854E0,3.771142886E0
1.171304837E1,-8.928645676E-1,2.530561498E0,2.155073044E0,3.441698484E0
1.172307537E1,7.099817884E-1,2.362527431E0,2.750748052E0,3.694891723E0
1.173310137E1,1.843743455E0,2.204491810E0,3.298394469E0,4.374766296E0
1.174312837E1,2.357598521E0,2.120590990E0,3.765388194E0,4.922735539E0
1.175315438E1,2.027781644E0,1.890903880E0,3.831734796E0,4.729651935E0
1.176318137E1,9.037269402E-1,2.019151154E0,3.682918480E0,4.296228846E0
1.177320737E1,1.398607206E-1,2.728459635E0,3.459755694E0,4.408396813E0
1.178323438E1,-1.042090774E-2,3.392846882E0,2.928100242E0,4.481661476E0
1.179326037E1,2.487230122E-1,3.363217579E0,2.008103717E0,3.924993778E0
1.180328737E1,5.979538143E-1,2.609751802E0,8.333217859E-1,2.804064627E0
1.181331337E1,8.479480112E-1,1.779064479E0,-1.236496076E-1,1.974683639E0
1.182334037E1,9.742513776E-1,1.377548167E0,-6.764427441E-1,1.817795226E0
1.183336638E1,1.150402257E0,1.244499452E0,-1.051722307E0,1.994573652E0
1.184339337E1,1.436020031E0,9.694239163E-1,-1.421158748E0,2.240899026E0
1.185341937E1,1.855347839E0,4.308687499E-1,-1.703284272E0,2.555218346E0
1.186344638E1,2.393348982E0,-3.596558028E-1,-1.946120892E0,3.105617196E0
1.187347237E1,2.920297133E0,-9.033717218E-1,-1.943711839E0,3.622462080E0
1.188349937E1,3.415003152E0,-1.312817443E0,-1.805040150E0,4.079694365E0
1.189352537E1,3.715710835E0,-1.848283525E0,-1.698782208E0,4.484252445E0
1.190355237E1,3.718595266E0,-2.230279493E0,-1.674595200E0,4.648264887E0
1.191357838E1,3.481098323E0,-2.345230198E0,-1.727260487E0,4.538896232E0
1.192360537E1,3.200518511E0,-2.347720234E0,-1.692382138E0,4.315004790E0
1.193363137E1,2.824657735E0,-2.172896380E0,-1.611951640E0,3.911337123E0
1.194365838E1,2.220349751E0,-1.726074087E0,-1.792542311E0,3.335040136E0
1.195368437E1,2.324841249E0,-1.700175892E0,-1.838434183E0,3.416917491E0
1.196371137E1,3.118128904E0,-1.706245594E0,-1.528744592E0,3.869245652E0
1.197373737E1,3.610481418E0,-1.630360722E0,-1.226920091E0,4.147165908E0
1.198376437E1,3.436228545E0,-1.254527720E0,-7.325464860E-1,3.730701109E0
1.199379038E1,3.128994200E0,-9.605247465E-1,-5.331833294E-1,3.316247420E0
1.200381737E1,3.195503354E0,-1.073811041E0,-7.370137587E-1,3.450724724E0
1.201384337E1,2.776087253E0,-1.074011016E0,-8.173471928E-1,3.086780934E0
1.202387038E1,1.675781600E0,-9.759789374E-1,-1.034169258E0,2.197790917E0
1.203389637E1,5.320703119E-1,-8.762248537E-1,-1.392295429E0,1.728975238E0
1.204392337E1,-2.942991346E-1,-7.820981303E-1,-1.727035662E0,1.918578026E0
1.205394937E1,-8.141329783E-1,-9.509496385E-1,-2.041159196E0,2.394462066E0
1.206397637E1,-1.357203072E0,-1.063218518E0,-2.282738373E0,2.860651722E0
1.207400238E1,-2.053421100E0,-8.679358408E-1,-2.515064915E0,3.360863336E0
1.208402937E1,-2.665577216E0,-3.962190270E-1,-2.742513418E0,3.844954000E0
1.209405537E1,-2.860095370E0,1.455594170E-1,-2.768845184E0,3.983445333E0
1.210408138E1,-2.959693918E0,5.379064178E-1,-2.535797680E0,3.934387027E0
1.211410837E1,-3.449147968E0,9.561258861E-1,-2.056193265E0,4.127799554E0
1.212413437E1,-4.395440884E0,1.423759589E0,-1.430062011E0,4.836534843E0
1.213416137E1,-5.762699997E0,1.679425293E0,-7.198612440E-1,6.045442977E0
1.214418737E1,-6.927152529E0,1.432647942E0,-3.556343803E-1,7.082682973E0
1.215421496E1,-7.414681676E0,8.738660869E-1,-8.124849406E-1,7.510078433E0
1.216424096E1,-7.394638005E0,3.278758934E-1,-1.778891109E0,7.612662308E0
1.217426796E1,-7.243664652E0,-5.074126035E-2,-2.666306949E0,7.718966576E0
1.218429396E1,-6.585494456E0,6.023976982E-2,-2.886307561E0,7.190489371E0
1.219432096E1,-5.071733939E0,8.440879717E-1,-1.846066261E0,5.462868321E0
1.220434696E1,-3.658309304E0,1.850154342E0,-1.207955816E-1,4.101327788E0
1.221437396E1,-2.729408931E0,2.487116686E0,1.248082334E0,3.897836840E0
1.222439996E1,-1.333155813E0,3.404852093E0,2.452277513E0,4.402724975E0
1.223442696E1,7.405650651E-1,4.437434417E0,3.616759574E0,5.772366121E0
1.224445296E1,2.131398398E0,5.025995264E0,4.459295110E0,7.049028330E0
1.225447996E1,2.596873017E0,4.630863527E0,4.812005298E0,7.165475661E0
1.226450596E1,2.732700913E0,3.204525608E0,4.528463870E0,6.184142922E0
1.227453296E1,2.442215917E0,2.162114992E0,4.105822738E0,5.243752490E0
1.228455896E1,1.301993662E0,2.137692341E0,3.927552534E0,4.657315209E0
1.229458596E1,5.080066806E-1,2.317705307E0,3.671515240E0,4.371481767E0
1.230461196E1,2.460449874E-1,1.898205591E0,3.062725950E0,3.611649602E0
1.231463896E1,3.844175917E-1,1.203666007E0,2.531622768E0,2.829435028E0
1.232466496E1,9.031077200E-1,4.254223609E-1,2.273408555E0,2.482936608E0
1.233469196E1,1.429070615E0,-2.735315788E-1,2.056792312E0,2.519415996E0
1.234471796E1,1.941017150E0,-7.908803558E-1,1.820834064E0,2.776414234E0
1.235474496E1,2.332086534E0,-1.096988820E0,1.736835887E0,3.107830589E0
1.236477096E1,2.448638499E0,-1.201029789E0,1.649164490E0,3.187169052E0
1.237479796E1,2.276105876E0,-1.310352257E0,1.331142325E0,2.944421995E0
1.238482396E1,1.899991915E0,-1.343094910E0,8.280426273E-1,2.469722213E0
1.239485096E1,1.671304972E0,-1.350428488E0,1.740467593E-1,2.155738780E0
1.240487696E1,1.804986940E0,-1.548386851E0,-4.884971532E-1,2.427778648E0
1.241490396E1,2.130343561E0,-1.754817245E0,-1.022419278E0,2.943312493E0
1.242492996E1,2.543127165E0,-1.942034565E0,-1.381893817E0,3.485487706E0
1.243495696E1,2.985171406E0,-2.077854275E0,-1.565116320E0,3.959585307E0
1.244498296E1,3.414558179E0,-1.970024602E0,-1.573123789E0,4.244399009E0
1.245500896E1,3.815383058E0,-1.770252433E0,-1.627066693E0,4.509799061E0
1.246503596E1,3.953745722E0,-1.492264106E0,-1.628103989E0,4.528761419E0
1.247506196E1,3.749077971E0,-1.160052795E0,-1.547475563E0,4.218529215E0
1.248508896E1,3.445468315E0,-9.705880970E-1,-1.282665983E0,3.802436743E0
1.249511496E1,3.435744980E0,-1.072687791E0,-1.151360031E0,3.778972425E0
1.250514196E1,3.065996298E0,-8.171632978E-1,-9.361871731E-1,3.308252647E0
1.251516796E1,2.561968063E0,-9.546053177E-1,-5.545595804E-1,2.789711096E0
1.252519496E1,2.040043255E0,-1.194261053E0,-3.278270692E-1,2.386526038E0
1.253522096E1,1.558533232E0,-1.296244387E0,-2.557750466E-1,2.043207337E0
1.254524796E1,1.148285565E0,-1.604653146E0,-3.962520638E-1,2.012582211E0
1.255527396E1,8.891609412E-1,-2.192062676E0,-6.851770225E-1,2.462765419E0
1.256530096E1,4.654366118E-1,-2.501141818E0,-9.086967811E-1,2.701494303E0
1.257532696E1,-2.429874784E-1,-2.599412170E0,-9.390754053E-1,2.774499804E0
1.258535396E1,-1.027027177E0,-2.540435399E0,-8.695242369E-1,2.874833776E0
1.259537996E1,-1.656540168E0,-2.316363663E0,-8.458912531E-1,2.970723474E0
1.260540696E1,-1.772819068E0,-2.113944167E0,-1.023681400E0,2.942714903E0
1.261543296E1,-1.448550614E0,-1.789751143E0,-1.218987466E0,2.605271286E0
1.262545996E1,-1.033517586E0,-1.108482984E0,-1.196507845E0,1.930938671E0
1.263548596E1,-8.041816020E-1,-3.290985462E-1,-8.265764380E-1,1.199267489E0
1.264551296E1,-8.459827620E-1,3.091639262E-1,-2.707480118E-1,9.405177578E-1
1.265553896E1,-1.229872935E0,7.163140306E-1,2.541588762E-1,1.445783511E0
1.266556596E1,-1.754680420E0,8.240197429E-1,6.246755898E-1,2.036696223E0
1.267559196E1,-2.660375533E0,5.921115687E-1,7.234207365E-1,2.819846033E0
1.268561896E1,-3.799840574E0,1.706170750E-1,6.660725610E-1,3.861547776E0
1.269564496E1,-5.011031654E0,-5.234100008E-1,4.345603895E-1,5.056999012E0
1.270567096E1,-5.958066582E0,-1.393670987E0,2.392193864E-1,6.123569395E0
1.271569796E1,-6.298961594E0,-2.153944969E0,-2.530787493E-1,6.661864975E0
1.272572396E1,-6.805411161E0,-2.200124817E0,-1.237891514E0,7.258549833E0
1.273575096E1,-7.534772376E0,-1.445229396E0,-1.998540595E0,7.928155351E0
1.274577696E1,-7.317260047E0,-8.816051692E-2,-1.796791483E0,7.535152719E0
1.275580396E1,-5.670334455E0,1.095368556E0,-9.629541184E-1,5.854895878E0
1.276582996E1,-3.933646502E0,1.850180362E0,9.126801968E-2,4.347996324E0
1.277585696E1,-2.458592799E0,2.675455502E0,1.307086295E0,3.861504276E0
1.278588296E1,-1.112918682E0,3.526627961E0,2.546120939E0,4.489813426E0
1.279590996E1,6.227518559E-1,3.826778696E0,3.523355859E0,5.238901752E0
1.280593596E1,2.293331773E0,3.583114695E0,4.190040185E0,5.971140451E0
1.281596296E1,3.207021784E0,3.014846902E0,4.620770648E0,6.381677832E0
1.282598896E1,2.823643827E0,2.260900484E0,4.906706802E0,6.095933653E0
1.283601596E1,1.297176726E0,1.934912072E0,4.958036000E0,5.478017266E0
1.284604196E1,1.564580423E-1,2.110657155E0,4.386002600E0,4.869945745E0
1.285606896E1,-8.491092682E-2,2.340134349E0,3.426835870E0,4.150499092E0
1.286609496E1,5.352131903E-2,2.223920938E0,2.202229230E0,3.130255972E0
1.287612196E1,2.090753818E-1,1.874235807E0,9.226295266E-1,2.099456506E0
1.288614796E1,3.726196647E-1,1.646524180E0,-5.023518384E-2,1.688908187E0
1.289617496E1,6.514692861E-1,1.512516230E0,-7.348543820E-1,1.803365892E0
1.290620096E1,1.168242112E0,1.323722208E0,-1.245416296E0,2.160576744E0
1.291622796E1,1.836484721E0,8.661793372E-1,-1.572110467E0,2.567970813E0
1.292625396E1,2.482834185E0,2.068180642E-1,-1.858973405E0,3.108540079E0
1.293627996E1,3.095252257E0,-6.978944242E-1,-2.117406157E0,3.814584119E0
1.294630696E1,3.507293850E0,-1.657799366E0,-2.221395233E0,4.470347377E0
1.295633296E1,3.657634535E0,-2.448330643E0,-2.113332548E0,4.882498109E0
1.296635996E1,3.479717211E0,-2.936433109E0,-1.842221717E0,4.911705623E0
1.297638596E1,3.109437602E0,-3.123633180E0,-1.530643183E0,4.665678407E0
1.298641296E1,2.646869050E0,-3.060376247E0,-1.235850543E0,4.230738128E0
1.299643896E1,2.269393857E0,-2.825704971E0,-1.007210086E0,3.761546121E0
1.300646596E1,2.110008699E0,-2.569588155E0,-9.583060205E-1,3.460241382E0
1.301649196E1,2.221957735E0,-2.327732697E0,-1.007488413E0,3.372012543E0
1.302651896E1,2.434240900E0,-1.990790403E0,-1.106287939E0,3.333563888E0
1.303654496E1,2.721184237E0,-1.610024106E0,-1.196371313E0,3.380580659E0
1.304657196E1,3.048806654E0,-1.229942224E0,-1.194876180E0,3.497957829E0
1.305659796E1,3.433982044E0,-9.032009831E-1,-1.145556962E0,3.730992556E0
1.306662496E1,3.784523208E0,-5.849086761E-1,-1.151962587E0,3.998968851E0
1.307665096E1,3.926852623E0,-4.308532548E-1,-1.193211477E0,4.126688706E0
1.308667796E1,3.739469241E0,-5.064995608E-1,-1.322170064E0,3.998537944E0
1.309670396E1,3.077048120E0,-6.450402725E-1,-1.527330735E0,3.495288438E0
1.310673096E1,2.141391875E0,-7.586697990E-1,-1.684303917E0,2.828076857E0
1.311675696E1,1.169224445E0,-7.510359666E-1,-1.770084325E0,2.250408706E0
1.312678296E1,2.558215320E-2,-6.638320541E-1,-1.808621862E0,1.926769442E0
1.313680996E1,-1.283710588E0,-4.946016464E-1,-1.763916974E0,2.236950325E0
1.314683533E1,-2.613156928E0,-1.803290078E-1,-1.700317394E0,3.122849167E0
1.315686233E1,-3.713569584E0,1.370634127E-1,-1.719780729E0,4.094756549E0
1.316688833E1,-4.218385440E0,3.044186184E-1,-1.797882281E0,4.595631307E0
1.317691533E1,-3.996451446E0,5.221317995E-1,-1.745367267E0,4.392101168E0
1.318694133E1,-3.564128786E0,9.353828886E-1,-1.301202241E0,3.907823233E0
1.319696833E1,-4.055360389E0,1.222883466E0,-5.706376693E-1,4.273993356E0
1.320699433E1,-5.512247379E0,1.070832177E0,-1.358135703E-1,5.616938494E0
1.321702133E1,-6.904975795E0,6.281011811E-1,-2.509396917E-1,6.938023677E0
1.322704733E1,-7.555773236E0,-4.072234869E-2,-1.091130494E0,7.634260492E0
1.323707433E1,-7.608988745E0,-5.852378744E-1,-2.113895928E0,7.918823719E0
1.324710033E1,-7.501735023E0,-4.129303694E-2,-2.771756805E0,7.997522695E0
1.325712733E1,-6.257159849E0,1.151505627E0,-2.806668191E0,6.953804780E0
1.326715333E1,-4.533449791E0,1.801518664E0,-2.258011959E0,5.375523650E0
1.327718033E1,-3.805809996E0,1.887593772E0,-1.212546173E0,4.417857874E0
1.328720633E1,-2.779076934E0,2.687663319E0,2.046668735E-1,3.871523118E0
1.329723333E1,-5.350675946E-1,3.982033381E0,1.971248132E0,4.475344275E0
1.330725933E1,1.539064343E0,4.929170051E0,3.559216540E0,6.271639245E0
1.331728533E1,2.499233871E0,4.946603524E0,4.831564819E0,7.352487672E0
1.332731233E1,2.825445355E0,3.477359321E0,5.622108375E0,7.189107864E0
1.333733833E1,2.715238203E0,1.565848391E0,5.723596743E0,6.525638617E0
1.334736533E1,1.518241823E0,1.174271469E0,5.700207880E0,6.014677181E0
1.335739133E1,6.435714519E-1,1.607303689E0,5.179345511E0,5.461064849E0
1.336741833E1,4.073497868E-1,1.525419865E0,3.734681834E0,4.054711829E0
1.337744433E1,6.381464052E-1,9.763695315E-1,2.521193967E0,2.777939401E0
1.338747133E1,1.162948043E0,5.887169677E-1,1.775033993E0,2.202221945E0
1.339749733E1,1.530865962E0,4.229425567E-1,1.420533388E0,2.130808792E0
1.340752433E1,1.859068422E0,1.044286403E-1,1.268503734E0,2.253029619E0
1.341755033E1,2.115305107E0,-4.887865904E-1,1.082428960E0,2.425918482E0
1.342757733E1,2.035292977E0,-1.079910564E0,9.207364905E-1,2.481205355E0
1.343760333E1,1.503061867E0,-1.468061019E0,8.753533262E-1,2.276102277E0
1.344763033E1,7.229257697E-1,-1.677117397E0,8.997888404E-1,2.035918561E0
1.345765633E1,6.445385814E-2,-1.773227788E0,1.018796636E0,2.046078609E0
1.346768233E1,2.746378720E-2,-1.612395152E0,9.112292102E-1,1.852271864E0
1.347770933E1,8.567843235E-1,-1.248262136E0,3.972419974E-1,1.565260023E0
1.348773533E1,1.952298768E0,-1.002160138E0,-1.888764676E-1,2.202605217E0
1.349776233E1,2.942891943E0,-9.291789928E-1,-6.446131334E-1,3.152699269E0
1.350778833E1,3.747296909E0,-9.792375907E-1,-9.808482063E-1,3.995397801E0
1.351781533E1,4.288212304E0,-1.072171775E0,-1.221392133E0,4.585860423E0
1.352784133E1,4.419509777E0,-1.147383048E0,-1.329956802E0,4.755769089E0
1.353786833E1,4.262916080E0,-1.107938608E0,-1.281946776E0,4.587305200E0
1.354789433E1,3.987876504E0,-1.008541204E0,-1.088714717E0,4.255069225E0
1.355792133E1,3.638170323E0,-9.093727192E-1,-7.613902161E-1,3.826611700E0
1.356794733E1,3.298070533E0,-8.946172705E-1,-4.215573514E-1,3.443155515E0
1.357797433E1,2.966587785E0,-9.722715104E-1,-1.729898751E-1,3.126640445E0
1.358800033E1,2.661164322E0,-1.241576429E0,-1.217583257E-1,2.939070035E0
1.359802733E1,2.307882569E0,-1.655349090E0,-3.140606770E-1,2.857470328E0
1.360805333E1,1.967762899E0,-2.110776438E0,-6.255672902E-1,2.952761831E0
1.361808033E1,1.722165223E0,-2.567531396E0,-1.010361589E0,3.252522263E0
1.362810633E1,1.399179064E0,-2.836355967E0,-1.168991725E0,3.371818334E0
1.363813233E1,8.744779980E-1,-2.882843085E0,-1.167818774E0,3.230990051E0
1.364815933E1,-3.771278679E-2,-2.607738021E0,-1.110320764E0,2.834525011E0
1.365818533E1,-8.797749907E-1,-2.193200544E0,-9.734690201E-1,2.555733670E0
1.366821233E1,-1.342069893E0,-1.781695726E0,-8.252432728E-1,2.378364505E0
1.367823833E1,-1.484535549E0,-1.268256105E0,-6.276108921E-1,2.050905842E0
1.368826533E1,-1.450912305E0,-5.442208260E-1,-3.707639046E-1,1.593357680E0
1.369829133E1,-1.427654420E0,2.972057855E-1,-1.147019058E-2,1.458307233E0
1.370831833E1,-1.565569187E0,1.038480995E0,3.664403272E-1,1.914086772E0
1.371834433E1,-1.921026689E0,1.604878263E0,6.078464261E-1,2.575937704E0
1.372837133E1,-2.425705719E0,1.698523176E0,6.336101353E-1,3.028281859E0
1.373839733E1,-3.093648950E0,1.244326375E0,3.044019538E-1,3.348383566E0
1.374842433E1,-3.978471842E0,5.451233438E-1,-2.125933591E-1,4.021267660E0
1.375845033E1,-4.958382740E0,-3.993490416E-1,-7.701660097E-1,5.033705865E0
1.376847733E1,-5.826829920E0,-1.553724774E0,-1.203586484E0,6.149359968E0
1.377850333E1,-6.571780981E0,-2.361464407E0,-1.436413256E0,7.129383035E0
1.378852933E1,-7.125736252E0,-2.226044939E0,-1.384757199E0,7.592690281E0
1.379855633E1,-7.231356263E0,-1.013970929E0,-1.055165294E0,7.377941735E0
1.380858233E1,-6.039785514E0,6.685235676E-1,-4.619820768E-1,6.094207106E0
1.381860933E1,-4.142397949E0,1.683192654E0,2.105287072E-1,4.476261901E0
1.382863533E1,-2.760607334E0,2.317039309E0,9.802725479E-1,3.735044616E0
1.383866233E1,-1.591650108E0,2.787138783E0,1.839892917E0,3.699553839E0
1.384868833E1,-2.800810450E-1,2.973657069E0,2.830047113E0,4.114638309E0
1.385871533E1,1.325076715E0,2.596927396E0,3.596591942E0,4.629830861E0
1.386874133E1,2.400853298E0,2.263769420E0,4.062163917E0,5.233538405E0
1.387876833E1,2.663297971E0,2.094443118E0,4.162484304E0,5.367133652E0
1.388879433E1,2.100473059E0,1.952868871E0,3.830472675E0,4.785206872E0
1.389882133E1,9.339973909E-1,2.137108497E0,3.404088447E0,4.126427269E0
1.390884733E1,3.681582391E-2,2.704522011E0,3.098536346E0,4.112994311E0
1.391887333E1,-1.071607518E-1,3.129957821E0,2.594002619E0,4.066567222E0
1.392890033E1,2.572131693E-1,3.035176794E0,1.846087604E0,3.561810807E0
1.393892633E1,7.859043753E-1,2.368856750E0,9.323101768E-1,2.664269178E0
1.394895333E1,1.030471187E0,1.781626729E0,1.656223834E-1,2.064823344E0
1.395897933E1,1.079700649E0,1.444323370E0,-4.840126312E-1,1.867107848E0
1.396900633E1,1.138692623E0,1.089419599E0,-1.074102817E0,1.907132092E0
1.397903233E1,1.310129478E0,5.692568493E-1,-1.569647912E0,2.122330600E0
1.398905933E1,1.746762121E0,-1.657586235E-1,-1.883433770E0,2.574097239E0
1.399908533E1,2.308835081E0,-1.026916664E0,-2.008705103E0,3.228029346E0
1.400911233E1,2.826793138E0,-1.870601178E0,-1.891070526E0,3.881501764E0
1.401913833E1,3.105702401E0,-2.506471262E0,-1.702625290E0,4.338976662E0
1.402916533E1,3.119038730E0,-2.833490831E0,-1.532391208E0,4.483892919E0
1.403919133E1,2.873231725E0,-2.878457673E0,-1.364006015E0,4.289695972E0
1.404921733E1,2.402012801E0,-2.680583510E0,-1.225044889E0,3.802095269E0
1.405924433E1,2.023451781E0,-2.429722171E0,-1.189151463E0,3.378163427E0
1.406927033E1,1.807398916E0,-2.155123183E0,-1.207612292E0,3.060976025E0
1.407929733E1,1.776868265E0,-1.856210888E0,-1.261305812E0,2.862459090E0
1.408932333E1,1.942387737E0,-1.512091722E0,-1.361325944E0,2.812916604E0
1.409935033E1,2.287623721E0,-1.151280802E0,-1.424122117E0,2.930323118E0
1.410937633E1,2.764002228E0,-7.908721697E-1,-1.426393175E0,3.209327748E0
1.411940333E1,3.284614336E0,-4.462267542E-1,-1.317008142E0,3.566836147E0
1.412942933E1,3.681490005E0,-1.872465563E-1,-1.216074968E0,3.881657927E0
1.413945633E1,3.880711659E0,9.053828716E-3,-1.198445612E0,4.061560887E0
1.414948238E1,3.756297528E0,8.034629792E-2,-1.316960488E0,3.981282654E0
1.415950937E1,3.137913542E0,-1.123092252E-1,-1.558783493E0,3.505555696E0
1.416953537E1,2.172813057E0,-5.311151692E-1,-1.713070756E0,2.817412168E0
1.417956138E1,1.248872877E0,-8.424010500E-1,-1.720633545E0,2.286898072E0
1.418958837E1,2.638298786E-1,-1.022051781E0,-1.728651832E0,2.025446421E0
1.419961437E1,-8.660200006E-1,-9.886899072E-1,-1.737279691E0,2.178448783E0
1.420964137E1,-2.071793051E0,-6.424958566E-1,-1.816921400E0,2.829546032E0
1.421966737E1,-2.933008980E0,-1.640731636E-1,-1.909488086E0,3.503656151E0
1.422969438E1,-3.265108024E0,2.774044821E-1,-1.869059560E0,3.772435194E0
1.423972037E1,-3.438082697E0,7.008896604E-1,-1.695332058E0,3.896897450E0
1.424974737E1,-3.915923592E0,1.159872408E0,-1.248315930E0,4.270603498E0
1.425977338E1,-4.836208093E0,1.454836956E0,-6.795274428E-1,5.095803845E0
1.426980037E1,-6.065999166E0,1.295110320E0,-3.091136402E-1,6.210411248E0
1.427982637E1,-7.174350588E0,8.126568487E-1,-5.620823157E-1,7.242075258E0
1.428985337E1,-7.463325248E0,4.081356525E-3,-1.558037096E0,7.624219305E0
1.429987937E1,-7.039583961E0,-8.823863572E-1,-2.662745117E0,7.577899418E0
1.430990538E1,-6.600932275E0,-9.451392603E-1,-3.416335148E0,7.492458940E0
1.431993237E1,-5.289876598E0,-2.068160176E-2,-3.394891361E0,6.285579489E0
1.432995837E1,-3.336172745E0,1.446648223E0,-2.519105926E0,4.423656217E0
1.433998538E1,-2.815329087E0,2.905130332E0,-1.054917226E0,4.180754773E0
1.435001137E1,-2.521829267E0,4.319956838E0,1.118967918E0,5.125791562E0
1.436003837E1,-1.319585010E0,5.571719409E0,3.494228539E0,6.707830861E0
1.437006437E1,4.198394394E-1,6.393701690E0,5.183524516E0,8.241638967E0
1.438009137E1,1.845684146E0,5.812131189E0,6.136228319E0,8.651052937E0
1.439011738E1,2.822142262E0,3.617981642E0,6.087392374E0,7.623032469E0
1.440014437E1,2.909531239E0,1.728778424E0,5.322249123E0,6.307169143E0
1.441017037E1,1.467071085E0,1.573091045E0,4.691889747E0,5.161467079E0
1.442019637E1,8.517755985E-2,1.949761368E0,3.930538415E0,4.388388866E0
1.443022337E1,-6.945778835E-1,1.625697860E0,2.954062464E0,3.442646803E0
1.444024938E1,-7.554064679E-1,6.766780946E-1,2.119009610E0,2.349198566E0
1.445027637E1,-5.111518979E-2,-1.057258451E-1,1.770383995E0,1.774274558E0
1.446030237E1,7.535002756E-1,-4.751254481E-1,1.514614503E0,1.757146536E0
1.447032938E1,1.435283867E0,-6.216607654E-1,1.233852257E0,1.992208141E0
1.448035537E1,2.057989529E0,-8.261440364E-1,1.039431460E0,2.449133037E0
1.449038237E1,2.382566716E0,-1.124497630E0,9.390186873E-1,2.796940323E0
1.450040837E1,2.095988830E0,-1.153757682E0,1.107566725E0,2.636480611E0
1.451043537E1,1.298793481E0,-1.119726302E0,1.421456956E0,2.227373201E0
1.452046138E1,7.389091337E-1,-1.272257062E0,1.457634264E0,2.071067934E0
1.453048737E1,6.953122938E-1,-1.425604093E0,1.053026236E0,1.903856736E0
1.454051437E1,1.042146322E0,-1.457911129E0,4.364101562E-1,1.844458631E0
1.455054037E1,1.772878709E0,-1.368861836E0,-2.625937772E-1,2.255180067E0
1.456056737E1,2.629543750E0,-1.248430243E0,-8.258607388E-1,3.025743605E0
1.457059337E1,3.349730099E0,-1.172406792E0,-1.169468566E0,3.736694548E0
1.458062037E1,3.880797613E0,-1.190820259E0,-1.399099542E0,4.293730608E0
1.459064637E1,4.149750237E0,-1.243950399E0,-1.541090696E0,4.598130072E0
1.460067338E1,4.139045155E0,-1.349418966E0,-1.588268663E0,4.634136779E0
1.461069937E1,3.921686023E0,-1.347195855E0,-1.479416019E0,4.402638946E0
1.462072637E1,3.653588846E0,-1.299057775E0,-1.250705102E0,4.074374285E0
1.463075238E1,3.418210934E0,-1.357040520E0,-9.191635895E-1,3.790855664E0
1.464077837E1,3.083083032E0,-1.458690563E0,-5.826756245E-1,3.460157514E0
1.465080537E1,2.584254141E0,-1.536563196E0,-3.407105318E-1,3.025802305E0
1.466083137E1,1.952674159E0,-1.736144162E0,-3.726164487E-1,2.639313536E0
1.467085837E1,1.305601394E0,-1.924087121E0,-4.916423705E-1,2.376640165E0
1.468088438E1,8.657030815E-1,-2.083667869E0,-6.248267403E-1,2.341265058E0
1.469091137E1,5.655625784E-1,-2.165141803E0,-8.545278829E-1,2.395395157E0
1.470093737E1,2.185268211E-1,-2.127224363E0,-1.100500950E0,2.404982288E0
1.471096438E1,-1.904186708E-1,-1.915860381E0,-1.203594378E0,2.270554932E0
1.472099037E1,-5.549112904E-1,-1.602044410E0,-1.072925773E0,2.006400396E0
1.473101737E1,-7.570542133E-1,-1.276127919E0,-9.263644356E-1,1.749224004E0
1.474104337E1,-7.819715381E-1,-1.015471032E0,-9.052925321E-1,1.569144822E0
1.475106937E1,-9.458415109E-1,-6.533506277E-1,-8.828944802E-1,1.449477792E0
1.476109638E1,-1.253233731E0,-1.318152443E-1,-6.593916786E-1,1.422240285E0
1.477112237E1,-1.424405122E0,4.420983276E-1,-1.576947284E-1,1.499749482E0
1.478114937E1,-1.447751300E0,9.639526767E-1,4.804341352E-1,1.804440508E0
1.479117537E1,-1.557890623E0,1.304798864E0,1.066746728E0,2.295097351E0
1.480120237E1,-1.986928902E0,1.227409503E0,1.302947928E0,2.674339891E0
1.481122838E1,-2.564711577E0,6.093465292E-1,9.891550532E-1,2.815577451E0
1.482125537E1,-3.316668772E0,-2.230560744E-1,3.939965004E-1,3.347428714E0
1.483128137E1,-4.256601672E0,-9.712959024E-1,-1.006108470E-1,4.367172548E0
1.484130838E1,-5.272214499E0,-1.541814581E0,-4.539035636E-1,5.511757103E0
1.485133437E1,-6.361653686E0,-1.746145824E0,-6.810386556E-1,6.632003958E0
1.486136038E1,-7.149943725E0,-1.096734173E0,-5.940361798E-1,7.257919819E0
1.487138737E1,-6.972950261E0,2.200552833E-1,-1.963746446E-1,6.979184958E0
1.488141337E1,-5.493221124E0,1.231535006E0,9.866284713E-2,5.630443246E0
1.489144038E1,-3.772980804E0,1.676919761E0,4.637169456E-1,4.154813767E0
1.490146637E1,-2.746231955E0,2.145317110E0,1.248266521E0,3.701667835E0
1.491149337E1,-1.695106648E0,2.584983581E0,2.269457592E0,3.834835645E0
1.492151937E1,-2.785414732E-1,2.701078294E0,3.134985549E0,4.147474375E0
1.493154637E1,1.307231598E0,2.443453480E0,3.577509554E0,4.525250708E0
1.494157238E1,2.220239823E0,2.148545358E0,3.710763798E0,4.828610566E0
1.495159937E1,2.183039837E0,1.930008012E0,3.557320873E0,4.598382938E0
1.496162537E1,1.431957970E0,1.652849113E0,2.923074268E0,3.650585843E0
1.497165138E1,5.639230192E-1,1.653471842E0,2.251685857E0,2.849924122E0
1.498167837E1,1.720034498E-1,2.018620811E0,1.707746574E0,2.649681779E0
1.499170437E1,3.308196741E-1,2.343146835E0,1.186594476E0,2.647222166E0
1.500173137E1,7.192671669E-1,2.270993363E0,5.051725352E-1,2.435149975E0
1.501175737E1,1.040866367E0,1.846227352E0,-1.969909412E-1,2.128559057E0
1.502178437E1,1.164215135E0,1.310736419E0,-7.632943618E-1,1.912078744E0
1.503181037E1,9.212796968E-1,1.005919020E0,-1.066162737E0,1.731280549E0
1.504183737E1,8.186762649E-1,7.046257389E-1,-1.237416428E0,1.642536963E0
1.505186338E1,8.496922356E-1,3.651030689E-1,-1.054228424E0,1.402381801E0
1.506188937E1,1.051999465E0,-1.646304032E-1,-7.679407056E-1,1.312836232E0
1.507191637E1,1.431607137E0,-8.698388171E-1,-5.553568482E-1,1.764805879E0
1.508194237E1,1.890742205E0,-1.489194318E0,-4.155557692E-1,2.442394808E0
1.509196937E1,2.180565881E0,-1.853074442E0,-3.891550058E-1,2.887939415E0
1.510199538E1,2.417188665E0,-2.152814995E0,-5.165687585E-1,3.277843304E0
1.511202237E1,2.598648816E0,-2.325482689E0,-7.462953365E-1,3.566202761E0
1.512204837E1,2.620389349E0,-2.299455562E0,-9.463165972E-1,3.612402431E0
1.513207538E1,2.615033884E0,-1.937804689E0,-1.024750271E0,3.412272314E0
1.514210137E1,2.820899144E0,-1.481034236E0,-1.026872225E0,3.347446931E0
1.515212771E1,3.056284073E0,-1.178981401E0,-1.047433667E0,3.439184026E0
1.516215471E1,3.114255123E0,-1.050630924E0,-1.165415861E0,3.487205821E0
1.517218071E1,3.107182916E0,-8.875383389E-1,-1.302089264E0,3.483926869E0
1.518220771E1,3.115509351E0,-7.197644725E-1,-1.378526406E0,3.482067556E0
1.519223371E1,2.922236069E0,-4.983146283E-1,-1.401033508E0,3.278822351E0
1.520226071E1,2.610388271E0,-3.184136367E-1,-1.359721760E0,2.960465747E0
1.521228671E1,2.237662772E0,-3.250940806E-1,-1.374132223E0,2.645951664E0
1.522231371E1,1.697825603E0,-4.471737108E-1,-1.475206901E0,2.293209870E0
1.523233971E1,1.060984297E0,-5.747514778E-1,-1.588843444E0,1.995106621E0
1.524236571E1,5.880082852E-1,-7.444405997E-1,-1.787745840E0,2.023852944E0
1.525239271E1,3.488168192E-1,-9.293146482E-1,-1.985558023E0,2.219851245E0
1.526241871E1,3.478251314E-1,-1.064416320E0,-2.096810071E0,2.377094213E0
1.527244571E1,2.174819237E-1,-1.165457668E0,-2.161249896E0,2.465074254E0
1.528247171E1,-2.617862767E-1,-1.181407996E0,-2.223247924E0,2.531222676E0
1.529249871E1,-7.238239020E-1,-1.184326633E0,-2.311664549E0,2.696357469E0
1.530252471E1,-9.067060965E-1,-1.001329833E0,-2.242973798E0,2.618340856E0
1.531255171E1,-9.230654365E-1,-5.551048332E-1,-1.902735429E0,2.186456788E0
1.532257771E1,-9.123691249E-1,2.242491987E-1,-1.297194852E0,1.601692732E0
1.533260471E1,-1.085808651E0,1.137677839E0,-2.507253912E-1,1.592530852E0
1.534263071E1,-2.452654366E0,2.222329326E0,9.437546396E-1,3.441646974E0
1.535265671E1,-3.835687514E0,3.021772929E0,1.361565095E0,5.069267190E0
1.536268371E1,-4.852421252E0,2.874713117E0,5.189178774E-1,5.663854101E0
1.537270971E1,-5.492496069E0,1.544864489E0,-1.262416491E0,5.843613159E0
1.538273671E1,-5.632348604E0,1.678992891E-1,-2.777343820E0,6.282131776E0
1.539276271E1,-5.600154419E0,-4.089747280E-1,-3.538312744E0,6.636915467E0
1.540278971E1,-4.981858726E0,-4.658739835E-2,-3.575695455E0,6.132428943E0
1.541281571E1,-4.445688347E0,8.324508432E-1,-2.870131238E0,5.356750191E0
1.542284271E1,-4.426929309E0,1.507575040E0,-1.665578209E0,4.964336449E0
1.543286871E1,-3.754210072E0,2.100294719E0,-1.756483117E-1,4.305366826E0
1.544289471E1,-1.973357515E0,2.704139603E0,1.372759005E0,3.618145680E0
1.545292171E1,2.771094900E-1,3.131811388E0,2.419759978E0,3.967400987E0
1.546294771E1,2.082309853E0,3.200658844E0,3.190838445E0,4.976111067E0
1.547297471E1,3.167768256E0,2.604457148E0,3.694422000E0,5.519665449E0
1.548300071E1,3.167731419E0,1.528252549E0,3.959114927E0,5.295721783E0
1.549302771E1,2.461588327E0,1.139757986E0,4.168716266E0,4.973596351E0
1.550305371E1,1.410972898E0,1.510242540E0,4.293907785E0,4.765429793E0
1.551308071E1,3.083716285E-1,1.792748133E0,3.920574467E0,4.322029972E0
1.552310671E1,-3.912564951E-1,1.687237758E0,2.986250509E0,3.452179746E0
1.553313271E1,-6.132834595E-1,1.406005396E0,1.947741448E0,2.479246765E0
1.554315971E1,-4.938605118E-1,1.204066541E0,1.315651881E0,1.850571347E0
1.555318571E1,4.216485679E-2,9.610138661E-1,1.107512638E0,1.466938911E0
1.556321271E1,6.339100975E-1,5.879512748E-1,1.055956861E0,1.364761373E0
1.557323871E1,9.962544501E-1,3.580337852E-2,9.704661825E-1,1.391261810E0
1.558326571E1,6.639870054E-1,-1.935890311E-1,9.351601097E-1,1.163133650E0
1.559329171E1,-7.717739940E-3,-3.379211175E-1,9.900748202E-1,1.046182773E0
1.560331871E1,-3.610491943E-1,-8.870647144E-1,9.229540470E-1,1.330069360E0
1.561334471E1,7.109921873E-2,-1.480571136E0,7.899013858E-1,1.679610130E0
1.562337071E1,1.323948787E0,-1.779262992E0,5.771248627E-1,2.291656670E0
1.563339771E1,2.579293363E0,-1.943020406E0,2.123849058E-1,3.236230817E0
1.564342371E1,3.273224545E0,-1.960810852E0,-3.117045414E-1,3.828307438E0
1.565345071E1,3.397748019E0,-1.735118560E0,-7.026786160E-1,3.879315049E0
1.566347671E1,3.309825776E0,-1.435024250E0,-7.443958685E-1,3.683526364E0
1.567350371E1,3.434950343E0,-1.280571803E0,-6.773087168E-1,3.727934428E0
1.568352971E1,3.728343744E0,-1.308925244E0,-6.238413383E-1,4.000376280E0
1.569355571E1,3.931235111E0,-1.464590111E0,-5.505440050E-1,4.231162062E0
1.570358271E1,3.889597673E0,-1.675314408E0,-6.031519890E-1,4.277784560E0
1.571360871E1,3.491712774E0,-1.883118897E0,-7.842145300E-1,4.043907431E0
1.572363571E1,2.794975514E0,-1.998337112E0,-8.452670628E-1,3.538321035E0
1.573366171E1,2.045039701E0,-1.926638554E0,-7.780740765E-1,2.915394101E0
1.574368871E1,1.335944350E0,-1.786975177E0,-6.798395379E-1,2.332425645E0
1.575371471E1,7.701934916E-1,-1.790896027E0,-6.115906906E-1,2.043171498E0
1.576374171E1,3.685874248E-1,-1.820297289E0,-7.276064658E-1,1.994680446E0
1.577376771E1,-6.935031652E-2,-1.890033230E0,-1.019315284E0,2.148496852E0
1.578379371E1,-3.465340662E-1,-1.933991428E0,-1.306380243E0,2.359457150E0
1.579382071E1,-5.888450217E-1,-1.885174194E0,-1.490529822E0,2.474328060E0
1.580384671E1,-8.222278637E-1,-1.713252897E0,-1.484614194E0,2.411508543E0
1.581387371E1,-8.812771404E-1,-1.465263126E0,-1.321681822E0,2.161131247E0
1.582389971E1,-8.940457052E-1,-1.153608578E0,-1.073927255E0,1.812029311E0
1.583392671E1,-1.137009210E0,-7.899103028E-1,-7.887971391E-1,1.593408032E0
1.584395271E1,-1.631021749E0,-3.993820783E-1,-5.594687565E-1,1.769955729E0
1.585397971E1,-2.141425204E0,-1.235092744E-1,-3.464359792E-1,2.172780323E0
1.586400571E1,-2.615002309E0,1.288992378E-1,-1.663690728E-1,2.623457787E0
1.587403171E1,-2.995257853E0,3.246254262E-1,-1.192261890E-2,3.012821505E0
1.588405871E1,-3.452291431E0,3.939467990E-1,4.313198626E-2,3.474963391E0
1.589408471E1,-4.023627550E0,1.913960329E-1,9.414017200E-5,4.028177145E0
1.590411171E1,-4.637582855E0,-2.958568329E-1,-1.913200191E-1,4.650947145E0
1.591413771E1,-4.925010341E0,-8.767078337E-1,-3.804350531E-1,5.016878942E0
1.592416471E1,-4.970250834E0,-1.120410427E0,-6.183420320E-1,5.132354210E0
1.593419071E1,-5.250559335E0,-6.335668659E-1,-6.065022974E-1,5.323309623E0
1.594421671E1,-5.535794116E0,5.273165256E-2,-3.535361069E-1,5.547322318E0
1.595424371E1,-5.182229358E0,3.333421630E-1,-1.074181755E-1,5.194050133E0
1.596426971E1,-3.986030538E0,2.862051263E-1,3.401943688E-1,4.010746194E0
1.597429671E1,-2.630062398E0,4.853265005E-1,1.046004900E0,2.871740984E0
1.598432271E1,-1.449373317E0,1.080963648E0,1.876578056E0,2.605899196E0
1.599434971E1,-1.585156775E-1,1.930853227E0,2.518546347E0,3.177482826E0
1.600437571E1,8.754538983E-1,2.923745821E0,2.966432249E0,4.256104961E0
1.601440271E1,1.313416783E0,3.918478825E0,3.332051042E0,5.308681955E0
1.602442871E1,1.349321026E0,4.610852893E0,3.555203011E0,5.976629492E0
1.603445471E1,1.079918166E0,4.673937626E0,3.535891997E0,5.959400002E0
1.604448171E1,4.555279201E-1,3.977774270E0,3.128657400E0,5.081209595E0
1.605450771E1,-2.134672254E-1,2.899252419E0,2.403306205E0,3.771884617E0
1.606453471E1,-3.400033110E-1,1.938323045E0,1.403061031E0,2.416873752E0
1.607456071E1,-2.741619086E-1,1.101305234E0,5.813540076E-1,1.275151149E0
1.608458771E1,-3.061151880E-1,3.838249764E-1,5.565540656E-2,4.940907256E-1
1.609461371E1,-5.177908266E-1,-2.146249741E-2,-1.832233796E-1,5.496715253E-1
1.610463971E1,-4.676497829E-1,-3.048451728E-1,-4.990681882E-1,7.487963377E-1
1.611466671E1,-2.457643211E-1,-3.654112172E-1,-6.760658911E-1,8.068398529E-1
1.612469271E1,6.366331458E-1,-5.788182163E-1,-1.039071856E0,1.349074724E0
1.613471971E1,1.460869528E0,-6.339250079E-1,-1.240564130E0,2.018662937E0
1.614474571E1,2.529149981E0,-8.477027205E-1,-1.056697118E0,2.869112812E0
1.615477308E1,3.735818825E0,-1.302056520E0,-1.014747439E0,4.084287678E0
1.616479908E1,4.330820380E0,-1.585138941E0,-1.080745547E0,4.736737438E0
1.617482608E1,4.391599263E0,-1.836648151E0,-1.267197028E0,4.925972881E0
1.618485208E1,3.895611534E0,-1.847357326E0,-1.483834906E0,4.559636427E0
1.619487808E1,3.364248151E0,-1.755394365E0,-1.637629688E0,4.132965762E0
1.620490508E1,2.899472274E0,-1.578828918E0,-1.482055160E0,3.618857239E0
1.621493108E1,2.558889504E0,-1.378779590E0,-9.861165476E-1,3.069425760E0
1.622495808E1,2.368959661E0,-1.293622203E0,-2.605485673E-1,2.711699437E0
1.623498408E1,2.358020105E0,-1.138738232E0,4.515775412E-1,2.657236506E0
1.624501108E1,2.543561613E0,-1.175214332E0,7.115383172E-1,2.890868586E0
1.625503708E1,2.727474672E0,-1.361924114E0,5.092685097E-1,3.090842893E0
1.626506308E1,2.777891119E0,-1.591538426E0,1.628358927E-1,3.205649569E0
1.627509008E1,2.433522277E0,-1.656293123E0,-4.295376313E-1,2.974868091E0
1.628511608E1,1.841627932E0,-1.523651667E0,-1.154397368E0,2.654381496E0
1.629514308E1,1.258298589E0,-1.175744675E0,-1.652174637E0,2.386497834E0
1.630516908E1,6.748376834E-1,-6.805153298E-1,-1.860365335E0,2.092717418E0
1.631519608E1,1.441157395E-1,-3.868669903E-1,-1.987259855E0,2.029688928E0
1.632522208E1,-3.246999782E-1,-3.386838868E-1,-2.169020553E0,2.219186115E0
1.633524808E1,-8.070549238E-1,-3.537872449E-1,-2.371582721E0,2.530001516E0
1.634527508E1,-1.127487604E0,-2.717095864E-1,-2.395140861E0,2.661156542E0
1.635530108E1,-1.091928931E0,-1.320678440E-1,-2.133637882E0,2.400450232E0
1.636532808E1,-8.572123396E-1,7.516508013E-2,-1.697853670E0,1.903462600E0
1.637535408E1,-1.255180269E0,4.096898425E-1,-1.255043444E0,1.821663339E0
1.638538108E1,-2.458683431E0,9.276613480E-1,-9.147746694E-1,2.782533465E0
1.639540708E1,-4.048341392E0,1.558935521E0,-6.156442729E-1,4.381593985E0
1.640543308E1,-5.584939964E0,1.979518434E0,-4.113624385E-1,5.939635232E0
1.641546008E1,-6.902686025E0,2.081488027E0,-4.379345253E-1,7.222980923E0
1.642548608E1,-7.767540675E0,1.722795261E0,-9.427866331E-1,8.011963448E0
1.643551308E1,-7.586687465E0,1.234495159E0,-1.991695552E0,7.940318391E0
1.644553908E1,-6.580568177E0,9.779269373E-1,-2.009606159E0,6.949729170E0
1.645556608E1,-4.881380172E0,1.588381514E0,-1.452125309E0,5.334744243E0
1.646559208E1,-2.707901702E0,2.714275459E0,-6.086144578E-1,3.882065746E0
1.647561908E1,-1.082637121E0,3.760543484E0,3.838650298E-1,3.932065970E0
1.648564508E1,-1.229991049E-1,4.587229849E0,1.504411112E0,4.829188261E0
1.649567108E1,4.756031656E-1,5.017120945E0,2.775209878E0,5.753215693E0
1.650569808E1,8.356811374E-1,4.837188963E0,3.849764978E0,6.238385241E0
1.651572408E1,9.122059876E-1,3.905077007E0,4.284475641E0,5.868430600E0
