"Time (s)","Linear Acceleration x (m/s^2)","Linear Acceleration y (m/s^2)","Linear Acceleration z (m/s^2)","Absolute acceleration (m/s^2)"
3.691667225E-4,-1.758918482E0,7.447662896E-1,2.119042793E0,2.852860566E0
1.039516670E-2,-1.062570646E0,-7.951400524E-1,1.280421091E0,1.844120997E0
2.042116667E-2,-1.813981712E-2,-2.357444739E0,6.702828486E-1,2.450949581E0
3.044816677E-2,1.816865559E0,-3.498007302E0,5.532392791E-1,3.980342855E0
4.047416674E-2,3.538183520E0,-4.433714418E0,5.745298684E-1,5.701460404E0
5.050016672E-2,4.311167303E0,-5.249882228E0,4.205761886E-1,6.806196534E0
6.052616669E-2,4.780543184E0,-5.882148088E0,3.264851332E-1,7.586820929E0
7.055316668E-2,5.523363521E0,-6.372962785E0,4.799887235E-1,8.447046136E0
8.057916677E-2,5.850156802E0,-6.921141007E0,4.279553747E-1,9.072467870E0
9.060516674E-2,6.009598678E0,-7.244749310E0,5.560935974E-1,9.429258132E0
1.006311667E-1,6.277467229E0,-7.246857816E0,6.162064826E-1,9.607458220E0
1.106571667E-1,6.656846275E0,-7.011824305E0,7.392484915E-1,9.696688648E0
1.206841667E-1,6.845092705E0,-6.883804781E0,7.825820605E-1,9.739327342E0
1.307101668E-1,6.678580960E0,-6.636850551E0,9.503947377E-1,9.463322833E0
1.407361667E-1,6.141108990E0,-6.266720631E0,1.015248545E0,8.832651737E0
1.507621667E-1,5.186641082E0,-5.668496675E0,8.897918558E-1,7.734651241E0
1.607891667E-1,4.229019771E0,-4.824551668E0,7.408948481E-1,6.458314966E0
1.708151667E-1,3.354803728E0,-3.813747007E0,7.612840891E-1,5.136042031E0
1.808411668E-1,2.186399063E0,-2.697584875E0,8.051007843E-1,3.564476440E0
1.908671667E-1,7.567068887E-1,-1.488955459E0,1.154084249E0,2.030148795E0
2.008941667E-1,-5.757191920E-1,-4.273092574E-1,1.831729766E0,1.967048480E0
2.109201667E-1,-1.253106846E0,3.447839946E-1,2.228727057E0,2.579995555E0
2.209461667E-1,-1.902124395E0,8.455740416E-1,2.269456422E0,3.079530017E0
2.309721668E-1,-2.042099136E0,8.226681590E-1,2.148373450E0,3.076111224E0
2.409981667E-1,-7.056139183E-1,5.794824600E-2,1.865699165E0,1.995515566E0
2.510251667E-1,1.117663697E0,-1.078109622E0,1.315258656E0,2.035042463E0
2.610511667E-1,2.269609035E0,-2.065528345E0,6.742172939E-1,3.141990050E0
2.710771668E-1,3.166545019E0,-2.625312120E0,3.541903738E-1,4.128525391E0
2.811031668E-1,3.813060544E0,-2.754491147E0,2.501368690E-1,4.710543561E0
2.911301667E-1,3.872026205E0,-2.499642591E0,5.072833800E-1,4.636608291E0
3.011561667E-1,3.306492278E0,-2.116423679E0,1.195753262E0,4.103896470E0
3.111821667E-1,2.294553841E0,-1.554093441E0,1.031461778E0,2.957041960E0
3.212081668E-1,7.853594148E-1,-8.204947490E-1,3.957956886E-1,1.202769833E0
3.312351668E-1,-6.696453559E-1,-4.119445288E-1,-3.848413686E-1,8.753434049E-1
3.412611667E-1,-9.437844604E-1,-1.630636418E-1,-1.418141146E0,1.711269461E0
3.512871667E-1,-1.011774715E0,2.646467346E-1,-1.945308129E0,2.208608087E0
3.613131667E-1,-2.016982421E0,9.213890398E-1,-2.437569427E0,3.295287630E0
3.713391668E-1,-2.844372792E0,1.931231834E0,-2.448516584E0,4.220822958E0
3.813661668E-1,-3.694363820E0,2.631469823E0,-9.132774898E-1,4.626773523E0
3.913921667E-1,-4.373515579E0,3.137995988E0,6.059352636E-1,5.416808552E0
4.014181667E-1,-4.476886750E0,3.523263765E0,1.115847552E-1,5.698100885E0
4.114441667E-1,-3.362196363E0,3.346077343E0,-1.776063103E0,5.065076319E0
4.214711668E-1,-1.992619413E0,3.004690581E0,-3.969638161E0,5.362529696E0
4.314971667E-1,-1.393735306E0,3.121725526E0,-5.659685506E0,6.612088051E0
4.415231667E-1,-1.514281504E0,4.116825736E0,-6.653276550E0,7.969152493E0
4.515491667E-1,-1.710422845E0,5.143347713E0,-6.796032227E0,8.692849132E0
4.615761667E-1,-2.121745815E0,6.020547005E0,-6.401790143E0,9.040559086E0
4.716021668E-1,-2.818210595E0,6.717246843E0,-5.559202275E0,9.163429818E0
4.816281667E-1,-3.061936576E0,6.947854012E0,-4.687101755E0,8.922838888E0
4.916541667E-1,-2.938384325E0,6.936372419E0,-4.008737908E0,8.533307939E0
5.016801667E-1,-2.353338239E0,6.852333312E0,-3.407977138E0,8.006683512E0
5.117072500E-1,-7.064290202E-1,7.123465194E0,-2.914660709E0,7.729039098E0
5.217332500E-1,-5.729423493E-1,6.705914354E0,-1.784055077E0,6.962786998E0
5.317592501E-1,-1.036379798E0,6.765856501E0,-1.568335212E0,7.022148718E0
5.417852501E-1,-2.490254302E0,7.073439340E0,-1.152523920E0,7.587043032E0
5.518122501E-1,-3.256467009E0,7.183277532E0,-6.826887399E-2,7.887250099E0
5.618382500E-1,-3.569860227E0,6.640931323E0,1.749574631E0,7.739953635E0
5.718642500E-1,-4.924267745E0,5.321084942E0,4.002018287E0,8.281214172E0
5.818902501E-1,-4.596115571E0,3.569766086E0,3.789247173E0,6.944487194E0
5.919162501E-1,-3.545028856E0,1.695894853E0,2.939608440E0,4.907604988E0
6.019432500E-1,-3.613128453E0,6.069947791E-1,1.923030237E0,4.137775389E0
6.119692500E-1,-3.324302897E0,3.759350359E-2,6.724425177E-1,3.391840498E0
6.219952501E-1,-3.512945184E0,-2.210352767E-1,-9.845293209E-2,3.521268725E0
6.320212501E-1,-2.338790367E0,-6.346146870E-1,-4.547693901E-1,2.465662462E0
6.420482501E-1,-2.366964591E-1,-1.399419385E0,-7.692162757E-1,1.614339960E0
6.520742500E-1,9.538866949E-1,-2.575588567E0,-7.723306489E-1,2.853077448E0
6.621002500E-1,1.727983788E0,-4.235138297E0,1.516239152E0,4.818848984E0
6.721262501E-1,2.999504101E0,-4.808754830E0,3.057288040E0,6.439577473E0
6.821532501E-1,3.644565423E0,-4.285690985E0,2.784393808E0,6.277169204E0
6.921792501E-1,4.007308556E0,-3.852468438E0,1.424685934E0,5.738446213E0
7.022052500E-1,4.694459306E0,-3.606722828E0,1.354839628E0,6.073054269E0
7.122312500E-1,5.143634226E0,-3.903174908E0,8.171146198E-1,6.508411766E0
7.222572501E-1,4.879476904E0,-4.348225787E0,-7.195090954E-1,6.575260883E0
7.322842501E-1,4.475356534E0,-4.523748091E0,-1.697542744E0,6.585952039E0
7.423102501E-1,4.315835720E0,-4.462004417E0,-1.880069282E0,6.486183923E0
7.523362500E-1,4.347135866E0,-4.072212065E0,-1.670955309E0,6.186484703E0
7.623622500E-1,4.576629725E0,-3.613674583E0,-1.043843769E0,5.924001472E0
7.723892501E-1,4.658609442E0,-3.310613980E0,-3.194298828E-1,5.724058203E0
7.824152501E-1,4.495249931E0,-3.303404363E0,9.829169512E-2,5.579373942E0
7.924412501E-1,4.655566551E0,-3.475558087E0,4.822328849E-1,5.829781512E0
8.024672500E-1,4.892343702E0,-3.639851983E0,7.120191045E-1,6.139260587E0
8.124932500E-1,4.857975522E0,-3.877109190E0,8.486708001E-1,6.273128723E0
8.225202501E-1,5.034731589E0,-4.283606452E0,1.005915366E0,6.686529155E0
8.325462501E-1,5.502212387E0,-4.439402590E0,1.208646519E0,7.172409840E0
8.425722501E-1,5.930302248E0,-4.477472641E0,1.361688033E0,7.554498018E0
8.525982500E-1,5.877270926E0,-4.590756013E0,1.327165926E0,7.574874500E0
8.626252500E-1,5.418821152E0,-4.816278443E0,1.011726183E0,7.320092252E0
8.726512501E-1,4.830044543E0,-4.991344664E0,7.299336576E-1,6.983956972E0
8.826772501E-1,4.370936957E0,-5.095637357E0,5.971761346E-1,6.739972499E0
8.927032501E-1,4.036670934E0,-5.121123616E0,7.627191420E-1,6.565238747E0
9.027302500E-1,3.571277007E0,-5.006304765E0,9.662465394E-1,6.225009176E0
9.127562500E-1,2.856741407E0,-4.810244701E0,1.161704925E0,5.713928936E0
9.227822501E-1,2.056521294E0,-3.934690230E0,1.269125440E0,4.617547663E0
9.328082501E-1,1.531927232E0,-2.563466120E0,1.135973960E0,3.195089424E0
9.428342500E-1,1.017245370E0,-1.024495332E0,9.442542842E-1,1.725107238E0
9.528612500E-1,8.926412040E-1,6.804521799E-2,1.369670506E0,1.636287189E0
9.628872500E-1,1.454047582E0,-6.626298666E-2,1.775275191E0,2.295701887E0
9.729132501E-1,9.569149679E-1,-8.619544315E-1,6.655356404E-1,1.449685961E0
9.829392501E-1,-1.767666501E0,-1.364117405E0,-1.021802397E0,2.455512430E0
9.929662501E-1,-3.445354879E0,-1.902333725E0,-2.880321766E0,4.877048013E0
1.002992250E0,-3.159595018E0,-1.619339597E0,-3.785229551E0,5.189726791E0
1.013018250E0,-3.135221484E0,-1.414956021E-1,-4.462513417E0,5.455608193E0
1.023044250E0,-4.982943385E0,2.043110120E0,-4.419093163E0,6.966520518E0
1.033070250E0,-5.893018647E0,4.276840054E0,-3.040422623E0,7.890703350E0
1.043097250E0,-5.704110312E0,5.532779877E0,-1.707948011E0,8.128075665E0
1.053123250E0,-4.935210224E0,5.655219403E0,-1.878181508E0,7.737271627E0
1.063149250E0,-4.834589583E0,5.576113007E0,-2.766827018E0,7.881727251E0
1.073175250E0,-5.301423680E0,5.480024543E0,-3.282374852E0,8.301189474E0
1.083202250E0,-5.791398717E0,5.736754147E0,-3.584539077E0,8.905030468E0
1.093228250E0,-4.076068304E0,5.168048691E0,-2.998033526E0,7.232652702E0
1.103254250E0,-4.026528354E0,4.985878687E0,-2.886838195E0,7.028922508E0
1.113280250E0,-4.232348006E0,4.856291524E0,-3.310330390E0,7.242556476E0
1.123307250E0,-3.795645781E0,4.451320969E0,-3.542284173E0,6.838783695E0
1.133333250E0,-1.826867806E0,4.038442640E0,-2.900613066E0,5.297171047E0
1.143359250E0,-1.659919274E-1,3.572458729E0,-2.913027582E0,4.612563754E0
1.153385250E0,-8.704299706E-1,3.226850277E0,-3.637796979E0,4.940018006E0
1.163411250E0,-2.520297296E0,2.734200139E0,-3.573453341E0,5.157258733E0
1.173438250E0,-4.120062754E0,4.264335199E0,-4.014983611E0,7.160975156E0
1.183464250E0,-4.445073220E0,6.476494755E0,-4.703294156E0,9.155579510E0
1.193490250E0,-6.424500729E0,8.048882380E0,-4.186019931E0,1.111672074E1
1.203516250E0,-5.103610035E0,8.049746014E0,-3.409954666E0,1.012289668E1
1.213543250E0,-4.601548803E0,7.734998581E0,-2.675588234E0,9.389527509E0
1.223569250E0,-4.904248048E0,7.286276236E0,-2.832809338E0,9.228557799E0
1.233595250E0,-5.725979483E0,6.779567052E0,-2.939816308E0,9.348362979E0
1.243621250E0,-4.575782463E0,6.261748159E0,-2.175031783E0,8.054690460E0
1.253647250E0,-3.798767610E0,6.398171886E0,-1.781790743E0,7.651275520E0
1.263674250E0,-3.161683059E0,6.879702374E0,-1.937972797E0,7.815515535E0
1.273700250E0,-3.384327489E0,7.651432514E0,-1.611916557E0,8.520350172E0
1.283726250E0,-3.034464018E0,7.585541410E0,-1.173705458E0,8.253847277E0
1.293752250E0,-2.041924889E0,6.320288143E0,-6.104115996E-1,6.669940164E0
1.303779250E0,-9.735228145E-1,4.551228835E0,3.238281584E-1,4.665436234E0
1.313805250E0,-7.154167753E-1,3.265306830E0,1.049961126E0,3.503779134E0
1.323831250E0,-5.333280480E-1,1.811148736E0,1.619864970E0,2.487701966E0
1.333857250E0,-2.249599278E-1,1.027315444E0,1.680981237E0,1.982846921E0
1.343884250E0,1.348970777E0,-1.623871189E-1,1.677423791E0,2.158666790E0
1.353910250E0,2.979813602E0,-1.174920217E0,1.567343817E0,3.565991203E0
1.363936250E0,4.142873327E0,-2.431704962E0,1.469228708E0,5.023467072E0
1.373962250E0,4.992570825E0,-3.936388847E0,1.588629874E0,6.553217948E0
1.383988250E0,5.278148253E0,-5.103193129E0,1.663288440E0,7.527812267E0
1.394015250E0,5.737910727E0,-5.928155735E0,1.762542148E0,8.436421324E0
1.404041250E0,5.647604574E0,-6.068341561E0,1.709391542E0,8.464173094E0
1.414067250E0,6.398832622E0,-6.506831864E0,1.722768656E0,9.287187500E0
1.424093250E0,7.829503620E0,-7.599093502E0,1.872643464E0,1.107041745E1
1.434120250E0,8.509237177E0,-8.651100569E0,2.046876311E0,1.230602946E1
1.444146250E0,8.276326790E0,-9.180387021E0,2.018042814E0,1.252396055E1
1.454172250E0,7.921725905E0,-9.232892094E0,1.653614660E0,1.227739708E1
1.464198250E0,7.617888792E0,-9.020039411E0,1.346010332E0,1.188297456E1
1.474224250E0,7.537649791E0,-8.758891066E0,1.121863313E0,1.161003507E1
1.484251250E0,7.337751029E0,-8.519726497E0,1.093977796E0,1.129712871E1
1.494277250E0,6.624526960E0,-8.063977552E0,1.265801736E0,1.051258034E1
1.504303250E0,6.337583038E0,-7.576811517E0,1.406365146E0,9.977519454E0
1.514329000E0,5.791591090E0,-6.803037191E0,1.501854855E0,9.059768782E0
1.524356000E0,5.102132444E0,-6.296952490E0,1.458488396E0,8.234716421E0
1.534382000E0,5.557362741E0,-6.403792815E0,1.298369412E0,8.577797280E0
1.544408000E0,5.624091750E0,-6.599608465E0,1.272467562E0,8.763812732E0
1.554434000E0,5.595768422E0,-7.050548660E0,1.334297336E0,9.099626917E0
1.564461000E0,4.970498756E0,-7.224174128E0,1.504810184E0,8.897134561E0
1.574487000E0,5.354752041E0,-7.604708583E0,1.462746484E0,9.415125561E0
1.584513000E0,3.915355827E0,-7.287103617E0,1.234209230E0,8.363920301E0
1.594539000E0,3.488811970E0,-6.658589914E0,7.133136781E-1,7.550989671E0
1.604565000E0,3.829024612E0,-6.077839778E0,2.185773996E-1,7.186747660E0
1.614592000E0,3.262914734E0,-5.582885837E0,1.744578186E-1,6.468822332E0
1.624618000E0,2.888536811E0,-5.268911991E0,3.450747474E-1,6.018650601E0
1.634644000E0,2.634320340E0,-4.829511861E0,7.340629613E-1,5.550015937E0
1.644670000E0,2.294550333E0,-3.969346678E0,9.683759491E-1,4.685981888E0
1.654697000E0,1.948657122E0,-2.900938171E0,8.326936488E-1,3.592504080E0
1.664723000E0,1.809710906E0,-1.497177229E0,5.165807453E-1,2.404880222E0
1.674749000E0,1.225199840E0,3.760695219E-1,1.248871708E-1,1.287687749E0
1.684775000E0,-2.584434235E-1,2.820461188E0,7.945518225E-2,2.833391509E0
1.694801000E0,-2.055128487E0,4.952527338E0,6.894437358E-1,5.406145836E0
1.704828000E0,-1.785373625E0,5.392301690E0,1.119819273E0,5.789513943E0
1.714854000E0,-1.567979409E0,4.988847903E0,5.821382654E-1,5.261753300E0
1.724880000E0,-3.690162011E0,6.072890110E0,1.235414341E-1,7.107218334E0
1.734906000E0,-5.407578126E0,6.354792563E0,-1.161249720E0,8.424594389E0
1.744933000E0,-6.448277262E0,5.761018923E0,-3.626861224E0,9.376766021E0
1.754959000E0,-7.193870932E0,4.855992147E0,-6.177511416E0,1.065336032E1
1.764985000E0,-7.394116434E0,3.673682803E0,-7.861906550E0,1.140081040E1
1.775011000E0,-7.287408841E0,2.835355800E0,-8.222887917E0,1.134731051E1
1.785037000E0,-7.319251608E0,2.868662710E0,-8.232125348E0,1.138281853E1
1.795064000E0,-7.439322428E0,3.734624823E0,-7.301123486E0,1.107236853E1
1.805090000E0,-6.977020508E0,4.581126233E0,-5.842963557E0,1.018851097E1
1.815116000E0,-6.266911835E0,5.225308135E0,-4.885125314E0,9.510125046E0
1.825142000E0,-5.397920864E0,5.794901783E0,-3.977075527E0,8.862029456E0
1.835169000E0,-3.820949607E0,5.838117970E0,-2.921774724E0,7.564393225E0
1.845195000E0,-4.166635242E0,6.746204009E0,-3.847601216E0,8.813407564E0
1.855221000E0,-4.707274064E0,7.537676103E0,-4.268232076E0,9.858640637E0
1.865247000E0,-3.288982791E0,6.889194744E0,-3.364027126E0,8.342367202E0
1.875274000E0,-3.158157188E0,6.390869299E0,-3.871448500E0,8.112045408E0
1.885300000E0,-4.074463828E0,6.404977461E0,-4.718587549E0,8.938123976E0
1.895326000E0,-5.244604531E0,6.726351542E0,-4.622527151E0,9.701414280E0
1.905352000E0,-6.168493840E0,7.266783957E0,-4.439126016E0,1.051486116E1
1.915378000E0,-6.459516195E0,7.649927441E0,-4.652962494E0,1.104068835E1
1.925405000E0,-6.326355799E0,7.942088833E0,-4.352819944E0,1.104747004E1
1.935431000E0,-5.970367954E0,7.995369247E0,-3.779088805E0,1.067017971E1
1.945457000E0,-5.330209522E0,7.387076386E0,-3.043654672E0,9.604366968E0
1.955483000E0,-4.677777200E0,6.434166176E0,-2.329419619E0,8.288925725E0
1.965510000E0,-4.210572390E0,5.505433618E0,-1.831975056E0,7.169020281E0
1.975536000E0,-3.974555962E0,4.865358801E0,-1.315907404E0,6.418755616E0
1.985562000E0,-3.733947131E0,4.219943722E0,-4.332076362E-1,5.651367538E0
1.995588000E0,-3.144906812E0,3.355419440E0,4.814550591E-1,4.623967717E0
2.005615000E0,-1.896639706E0,2.110147278E0,8.540182981E-1,2.962990206E0
2.015641000E0,-4.845207542E-1,8.140441006E-1,7.627953020E-1,1.216258538E0
2.025667000E0,7.471209633E-1,-3.675653315E-1,5.788746420E-1,1.014095586E0
2.035693000E0,2.051421352E0,-1.534112921E0,3.845105624E-1,2.590305077E0
2.045719000E0,3.044588472E0,-2.533703207E0,4.131885239E-1,3.982448451E0
2.055746000E0,3.846336463E0,-3.293296866E0,5.412172575E-1,5.092447796E0
2.065772000E0,4.444155207E0,-3.781822963E0,7.446674716E-1,5.882791010E0
2.075798000E0,4.839933354E0,-4.196867686E0,1.050266351E0,6.491664859E0
2.085824000E0,5.162962782E0,-4.824911272E0,1.366652173E0,7.197478144E0
2.095851000E0,5.499023901E0,-5.452669514E0,1.555516946E0,7.898765831E0
2.105877000E0,6.052560511E0,-6.037170054E0,1.538494970E0,8.686073784E0
2.115903000E0,6.516766868E0,-6.652207094E0,1.567317212E0,9.443335898E0
2.125929000E0,6.791819893E0,-7.186787031E0,1.620484628E0,1.002021435E1
2.135955000E0,6.846893647E0,-7.526345953E0,1.627874339E0,1.030416474E1
2.145982000E0,6.721802993E0,-7.667582524E0,1.608219216E0,1.032283034E1
2.156008000E0,6.669701378E0,-7.710489977E0,1.552244113E0,1.031242134E1
2.166034000E0,6.660229474E0,-7.763687360E0,1.451704895E0,1.033155096E1
2.176060000E0,6.707617064E0,-7.825160308E0,1.333247176E0,1.039243997E1
2.186087000E0,6.802323831E0,-7.884822958E0,1.214235361E0,1.048410273E1
2.196113000E0,6.882809585E0,-7.936782485E0,1.132707413E0,1.056639059E1
2.206139000E0,6.932937765E0,-7.966924882E0,1.048330776E0,1.061303517E1
2.216165000E0,6.964431453E0,-7.996297785E0,9.722212243E-1,1.064844110E1
2.226192000E0,6.967460895E0,-8.010496579E0,9.067231265E-1,1.065531387E1
2.236218000E0,6.901025416E0,-8.034315796E0,8.587583435E-1,1.062599868E1
2.246244000E0,6.799953369E0,-8.064925386E0,8.080349171E-1,1.057994838E1
2.256270000E0,6.707921703E0,-8.076399377E0,7.468566692E-1,1.052531403E1
2.266296000E0,6.585195664E0,-8.061103646E0,6.849884498E-1,1.043146217E1
2.276323000E0,6.444903418E0,-8.042437579E0,6.387311268E-1,1.032596532E1
2.286349000E0,6.332084901E0,-7.935775595E0,5.816658834E-1,1.016907905E1
2.296375000E0,6.211860884E0,-7.682846680E0,5.207810926E-1,9.893662704E0
2.306401000E0,5.976930285E0,-7.524575416E0,4.983452896E-1,9.622436222E0
2.316428000E0,5.870952424E0,-7.530629039E0,4.507536320E-1,9.559374191E0
2.326454000E0,5.854776687E0,-7.503685654E0,3.912980103E-1,9.525587781E0
2.336480000E0,5.826717069E0,-7.487464893E0,3.648756123E-1,9.494519289E0
2.346506000E0,5.701543384E0,-7.220666383E0,3.242830718E-1,9.206018656E0
2.356533000E0,4.690952146E0,-3.052838894E0,-2.677673936E-1,5.603263043E0
2.366559000E0,2.902203509E0,3.125100539E0,-1.411074640E0,4.492234435E0
2.376585000E0,6.894311643E-1,5.801155965E0,-1.330723372E0,5.991623366E0
2.386611000E0,-9.070452350E-1,8.394113102E0,-6.662013459E-1,8.469220157E0
2.396637000E0,-3.388883640E0,1.266178063E1,4.233770049E-1,1.311428493E1
2.406664000E0,-8.792318428E0,1.561247159E1,1.871320678E0,1.801543709E1
2.416690000E0,-1.199833449E1,1.309054760E1,1.102100748E0,1.779148934E1
2.426716000E0,-1.121571508E1,8.654367993E0,-1.027617453E0,1.420374415E1
2.436742000E0,-9.401915218E0,5.726163086E0,-2.233207486E0,1.123263856E1
2.446769000E0,-8.041896712E0,4.484194016E0,-4.081398918E0,1.007163918E1
2.456795000E0,-8.356077549E0,4.382712665E0,-4.317073576E0,1.037638312E1
2.466821000E0,-9.477539012E0,4.869850633E0,-2.621638022E0,1.097324824E1
2.476847000E0,-9.756307358E0,4.812190654E0,-2.056975330E0,1.107130795E1
2.486874000E0,-9.420146252E0,3.969836090E0,-3.770127947E0,1.089553205E1
2.496900000E0,-8.866489774E0,3.243343518E0,-5.942642212E0,1.115566737E1
2.506925500E0,-8.355184094E0,3.706489776E0,-7.021319599E0,1.152588811E1
2.516951500E0,-6.924651675E0,4.676931692E0,-7.508861609E0,1.123421086E1
2.526977500E0,-4.514217129E0,5.267402240E0,-8.179701551E0,1.072525991E1
2.537004500E0,-3.270474014E0,5.959103293E0,-8.471686943E0,1.086169379E1
2.547030500E0,-3.322107267E0,6.890237303E0,-8.484650804E0,1.142370632E1
2.557056500E0,-3.946892200E0,7.726847563E0,-8.253623221E0,1.197515877E1
2.567082500E0,-4.620631776E0,8.400584800E0,-7.543437949E0,1.219932453E1
2.577109500E0,-5.528982110E0,8.906817436E0,-6.704426823E0,1.244388922E1
2.587135500E0,-6.766375734E0,9.344064036E0,-5.203997957E0,1.265610398E1
2.597161500E0,-7.917721732E0,9.772683070E0,-2.894215335E0,1.290628274E1
2.607187500E0,-8.406260692E0,9.822955091E0,-2.832097439E-1,1.293197098E1
2.617214500E0,-8.023572707E0,9.218835388E0,1.629112633E0,1.232958446E1
2.627240500E0,-7.588603597E0,7.752079468E0,2.463820210E0,1.112438990E1
2.637266500E0,-8.173225175E0,5.996847070E0,2.464873878E0,1.043261174E1
2.647292500E0,-8.849337552E0,4.446184775E0,2.053369060E0,1.011413163E1
2.657318500E0,-7.940860333E0,2.981892872E0,1.735378761E0,8.657972475E0
2.667345500E0,-4.666487396E0,1.755811856E0,1.694512717E0,5.265961758E0
2.677371500E0,-1.385976636E0,5.096947718E-1,1.602791977E0,2.179371955E0
2.687397500E0,6.841575605E-1,-8.794136328E-1,1.542987825E0,1.903221304E0
2.697423500E0,2.194781631E0,-2.067553235E0,1.453069342E0,3.347126126E0
2.707450500E0,3.482071885E0,-2.984188489E0,1.349129237E0,4.780204519E0
2.717476500E0,4.548336217E0,-3.708614654E0,1.303387638E0,6.011655707E0
2.727502500E0,5.312433402E0,-4.295122544E0,1.189285145E0,6.934293437E0
2.737528500E0,6.043558137E0,-4.773086815E0,9.947248185E-1,7.765077602E0
2.747554500E0,6.716660367E0,-5.109895792E0,7.621600020E-1,8.473809613E0
2.757581500E0,7.186450231E0,-5.498342115E0,5.450855927E-1,9.064984900E0
2.767607500E0,7.547562575E0,-5.828657759E0,4.326378250E-1,9.546000607E0
2.777633500E0,7.837005597E0,-6.094338282E0,3.576320815E-1,9.934159075E0
2.787659500E0,8.048326310E0,-6.312250561E0,3.060467756E-1,1.023297260E1
2.797686500E0,8.132651930E0,-6.452751551E0,1.991801022E-1,1.038353036E1
2.807712500E0,8.111249952E0,-6.476515805E0,1.034488662E-1,1.038018952E1
2.817738500E0,8.107763257E0,-6.477008725E0,-2.028691471E-2,1.037727703E1
2.827764500E0,8.077537830E0,-6.488342968E0,-1.448641831E-1,1.036176614E1
2.837791500E0,8.019615896E0,-6.491441993E0,-2.895073414E-1,1.032167006E1
2.847817500E0,8.015162072E0,-6.480000746E0,-4.047015828E-1,1.031489293E1
2.857843500E0,8.026642495E0,-6.486349068E0,-5.330029428E-1,1.033362502E1
2.867869500E0,8.113812202E0,-6.476595327E0,-6.958087955E-1,1.040501732E1
2.877895500E0,8.097959231E0,-6.452220624E0,-8.088085768E-1,1.038567600E1
2.887922500E0,8.048734446E0,-6.438929318E0,-8.969840042E-1,1.034632868E1
2.897948500E0,8.008541270E0,-6.400752262E0,-1.009717079E0,1.030174215E1
2.907974500E0,7.989101032E0,-6.345223594E0,-1.126737991E0,1.026436244E1
2.918000500E0,7.996098395E0,-6.307951103E0,-1.204490318E0,1.025566349E1
2.928027500E0,8.015883619E0,-6.317217770E0,-1.267086954E0,1.028431524E1
2.938053500E0,8.079849234E0,-6.297015640E0,-1.291466920E0,1.032493372E1
2.948079500E0,8.144731109E0,-6.306208048E0,-1.337885041E0,1.038724416E1
2.958105500E0,8.150763096E0,-6.337860780E0,-1.357062301E0,1.041369466E1
2.968132500E0,8.140649167E0,-6.337795292E0,-1.369008016E0,1.040730517E1
2.978158500E0,8.092010273E0,-6.255942459E0,-1.399955282E0,1.032362926E1
2.988184500E0,8.040325565E0,-6.062599595E0,-1.449555897E0,1.017365034E1
2.998210500E0,7.782794892E0,-5.779217212E0,-1.453743526E0,9.802276172E0
3.008236500E0,7.633498519E0,-5.723228953E0,-1.432496060E0,9.647678179E0
3.018263500E0,7.554320202E0,-5.754395782E0,-1.422027352E0,9.602238610E0
3.028289500E0,7.532707139E0,-5.735260184E0,-1.329973758E0,9.560529087E0
3.038315500E0,7.564588498E0,-5.606270607E0,-1.287342879E0,9.503184779E0
3.048341500E0,7.590782270E0,-5.115215004E0,-1.195352143E0,9.231157390E0
3.058368500E0,7.204402353E0,-2.482326062E0,-1.089243890E0,7.697519613E0
3.068394500E0,4.951570149E0,6.789377511E0,-1.064445264E0,8.470344600E0
3.078420500E0,-1.939122067E0,1.600780535E1,1.250304276E-1,1.612531113E1
3.088446500E0,-2.059350527E1,2.119573808E1,1.098812274E0,2.957294643E1
3.098473500E0,-5.125452660E1,1.892507713E1,-3.132358103E0,5.472656310E1
3.108499500E0,-3.804415084E1,8.996519571E0,-1.910809264E0,3.914008137E1
3.118525500E0,-8.868838601E0,3.957524777E0,1.405180646E0,9.812891171E0
3.128551500E0,-3.210828906E0,1.852808393E0,1.779188440E0,4.111913510E0
3.138577500E0,-5.263656514E0,1.717575744E0,2.083812003E0,5.915946145E0
3.148604500E0,-9.804465610E0,3.184317631E0,1.628858864E0,1.043650353E1
3.158630500E0,-1.195474701E1,4.840844935E0,7.017162374E-1,1.291673958E1
3.168656500E0,-9.703029867E0,5.810664123E0,-6.330780387E-1,1.132755022E1
3.178682500E0,-7.417404724E0,6.860927550E0,-2.260264599E0,1.035369575E1
3.188709500E0,-7.575875963E0,8.616913068E0,-3.572143564E0,1.201687551E1
3.198735500E0,-7.873059529E0,1.018357627E1,-4.357157993E0,1.358952235E1
3.208761500E0,-8.246468568E0,1.087716948E1,-4.334868407E0,1.432159711E1
3.218787500E0,-8.961755535E0,1.061824425E1,-3.178662204E0,1.425356329E1
3.228814500E0,-9.471645019E0,1.013834338E1,-1.244361750E0,1.393005750E1
3.238840500E0,-9.402870069E0,9.423205515E0,5.477811591E-1,1.332331910E1
3.248866500E0,-9.612148349E0,8.493200018E0,1.610645957E0,1.292756833E1
3.258892500E0,-1.080442895E1,7.643305469E0,2.341613402E0,1.344019928E1
3.268919500E0,-1.122110271E1,6.830090504E0,3.275024318E0,1.353842925E1
3.278945500E0,-1.101777046E1,6.001859888E0,4.063096256E0,1.318796190E1
3.288971500E0,-1.041949622E1,4.900904025E0,4.383064082E0,1.232055244E1
3.298997500E0,-9.921111131E0,3.369471468E0,4.225517288E0,1.129764490E1
3.309024500E0,-7.784871238E0,1.903599355E0,3.705556560E0,8.829442798E0
3.319050500E0,-4.715146170E0,5.082642505E-1,3.064215821E0,5.646269083E0
3.329076500E0,-1.065649205E0,-5.240675202E-1,2.204627173E0,2.504123792E0
3.339102500E0,1.476928321E0,-1.558997501E0,1.301760943E0,2.511249097E0
3.349128500E0,3.235787746E0,-2.510925086E0,6.198364341E-1,4.142374239E0
3.359155500E0,4.689178101E0,-3.181710942E0,1.155823503E-1,5.667895117E0
3.369181500E0,5.794739231E0,-3.635453707E0,-2.794135123E-1,6.846429604E0
3.379207500E0,6.664086297E0,-3.912938004E0,-6.026076132E-1,7.751404126E0
3.389233500E0,7.368220285E0,-4.076022988E0,-8.467814916E-1,8.462958848E0
3.399260500E0,7.929869907E0,-4.187875253E0,-1.062304452E0,9.030483189E0
3.409286500E0,8.434182901E0,-4.271638079E0,-1.211974608E0,9.531590399E0
3.419312500E0,8.856656511E0,-4.372656038E0,-1.282850463E0,9.960230454E0
3.429338500E0,9.155479637E0,-4.442016588E0,-1.348749168E0,1.026515675E1
3.439364500E0,9.407747816E0,-4.499413733E0,-1.342770390E0,1.051444127E1
3.449391500E0,9.572776707E0,-4.569852217E0,-1.327246617E0,1.069033146E1
3.459417500E0,9.690444905E0,-4.558491369E0,-1.264448690E0,1.078347794E1
3.469443500E0,9.796321024E0,-4.474798417E0,-1.180167582E0,1.083441378E1
3.479469500E0,9.823898832E0,-4.413006797E0,-1.082992632E0,1.082388517E1
3.489496500E0,9.846317056E0,-4.359482846E0,-1.012953002E0,1.081578125E1
3.499522500E0,9.900713704E0,-4.288233646E0,-9.235022235E-1,1.082893975E1
3.509548875E0,9.996778779E0,-4.185176178E0,-8.560107368E-1,1.087124832E1
3.519574875E0,1.014655989E1,-4.048711520E0,-7.719810585E-1,1.095174403E1
3.529601875E0,1.014522321E1,-3.859918083E0,-7.080891178E-1,1.087777146E1
3.539627875E0,9.925887136E0,-3.674285066E0,-6.481153963E-1,1.060394548E1
3.549653875E0,9.773506358E0,-3.495752908E0,-6.178261614E-1,1.039824139E1
3.559679875E0,9.847370725E0,-3.328641823E0,-6.197604203E-1,1.041319689E1
3.569706875E0,9.879225186E0,-3.235222028E0,-6.463178891E-1,1.041554025E1
3.579732875E0,9.850822921E0,-3.180646456E0,-6.494866414E-1,1.037193603E1
3.589758875E0,9.862907946E0,-3.128621147E0,-6.600722945E-1,1.036826499E1
3.599784875E0,9.870441499E0,-3.069012584E0,-6.892118937E-1,1.035951093E1
3.609810875E0,9.886024328E0,-3.012469717E0,-7.294940932E-1,1.036053148E1
3.619837875E0,9.900318432E0,-2.913583652E0,-7.936625341E-1,1.035061230E1
3.629863875E0,9.852048497E0,-2.850222054E0,-8.508236718E-1,1.029128400E1
3.639889875E0,9.763962532E0,-2.765680671E0,-9.180672365E-1,1.018954373E1
3.649915875E0,9.536445617E0,-2.664961504E0,-9.861102618E-1,9.950790334E0
3.659942875E0,9.261201389E0,-2.473226333E0,-9.789367515E-1,9.635611907E0
3.669968875E0,9.298483821E0,-2.085315030E0,-9.655034313E-1,9.578232458E0
3.679994875E0,9.566109712E0,-1.658997753E0,-9.225671075E-1,9.752633420E0
3.690020875E0,9.612986255E0,-1.521511586E0,-9.087988150E-1,9.774989388E0
3.700047875E0,9.620094130E0,-1.245791979E0,-9.057984625E-1,9.742621802E0
3.710073875E0,9.028768135E0,-8.705397521E-1,-7.889479242E-1,9.104885080E0
3.720099875E0,7.257032556E0,-1.025030060E-1,-6.104990885E-1,7.283387778E0
3.730125875E0,1.852711329E0,4.546335885E-1,5.553293663E-1,1.986862269E0
3.740152875E0,-7.893122495E0,4.761026933E0,1.512881681E0,9.341176112E0
3.750178875E0,-5.308632829E1,6.728168857E0,-4.288788840E0,5.368258765E1
3.760204875E0,-6.585515038E1,5.010493126E0,-1.453072968E1,6.762505437E1
3.770230875E0,-2.499294097E1,8.707167181E0,3.982573664E-1,2.646923625E1
3.780256875E0,-1.446203074E1,3.570064002E0,7.727759144E0,1.678135726E1
3.790283875E0,-1.246751040E1,-1.291006452E0,6.374756126E0,1.406211324E1
3.800309875E0,-1.359028456E1,-2.496261439E0,3.955885803E0,1.437275854E1
3.810335875E0,-8.012136138E0,-1.790181790E0,3.769892889E0,9.033890011E0
3.820361875E0,-4.064867962E0,-6.348661172E-1,2.276060268E0,4.701771674E0
3.830388875E0,-5.516524032E0,3.797570685E-1,-4.283366132E-1,5.546145065E0
3.840414875E0,-7.280724304E0,2.190731557E0,-2.366937693E0,7.963080132E0
3.850440875E0,-7.180141085E0,4.042353843E0,-3.393345065E0,8.911219969E0
3.860466875E0,-7.388160460E0,5.212301588E0,-3.526715376E0,9.705190579E0
3.870493875E0,-9.071401353E0,5.734512325E0,-2.644073496E0,1.105287649E1
3.880519875E0,-1.136403672E1,5.439679924E0,-8.782599771E-1,1.262944135E1
3.890545875E0,-1.215119474E1,4.514737239E0,6.053084421E-1,1.297693278E1
3.900571875E0,-1.243809656E1,3.708268499E0,1.557049209E0,1.307218052E1
3.910598875E0,-1.167024020E1,2.897110584E0,2.066772632E0,1.220079117E1
3.920624875E0,-9.706746358E0,2.501277473E0,2.372138792E0,1.030069688E1
3.930650875E0,-7.898927611E0,2.271435997E0,2.621493888E0,8.626975664E0
3.940676875E0,-6.691606802E0,1.963609768E0,2.890238351E0,7.548963018E0
3.950702875E0,-5.854468539E0,1.615157961E0,2.909574509E0,6.734178564E0
3.960729875E0,-4.859813887E0,1.268023093E0,2.745527365E0,5.723949169E0
3.970755875E0,-6.045676584E0,3.539368970E-1,2.658647096E0,6.613915713E0
3.980781875E0,-6.106422722E0,-1.793899450E-1,2.153283942E0,6.477438610E0
3.990807875E0,-6.493414843E0,-7.991603056E-1,1.702979924E0,6.760416714E0
4.000834875E0,-7.140299912E0,-1.472954553E0,1.262623190E0,7.399168553E0
4.010860875E0,-5.481890389E0,-1.546919492E0,8.442361256E-1,5.758195620E0
4.020886875E0,-1.238262520E0,-7.161757439E-1,4.429844731E-1,1.497476881E0
4.030912875E0,2.428397777E0,1.374098693E-1,4.239723611E-1,2.468957229E0
4.040939875E0,4.267382768E0,3.308094415E-1,4.284447867E-1,4.301575933E0
4.050965875E0,5.627535760E0,4.039113316E-1,2.545036427E-1,5.647749570E0
4.060991875E0,6.855674996E0,4.365092665E-1,-5.093977332E-2,6.869746345E0
4.071017875E0,7.755558561E0,4.666186264E-1,-4.573212612E-1,7.783030533E0
4.081043875E0,8.372964892E0,4.014169094E-1,-8.328405601E-1,8.423853039E0
4.091070875E0,8.869145579E0,2.882879046E-1,-1.177032816E0,8.951550674E0
4.101096875E0,9.317720575E0,9.617558777E-2,-1.472489700E0,9.433842927E0
4.111122875E0,9.648796942E0,-1.186940741E-1,-1.710981108E0,9.800042197E0
4.121148875E0,9.922687540E0,-2.841434164E-1,-1.795508019E0,1.008783002E1
4.131175875E0,1.011742087E1,-4.376430782E-1,-1.793723010E0,1.028451160E1
4.141201875E0,1.027203763E1,-5.271361390E-1,-1.814760122E0,1.044442357E1
4.151227875E0,1.035760461E1,-5.150245088E-1,-1.805137944E0,1.052633585E1
4.161253875E0,1.041272397E1,-4.688885155E-1,-1.793645096E0,1.057647577E1
4.171280875E0,1.040602306E1,-4.367647898E-1,-1.777009767E0,1.056569180E1
4.181306875E0,1.036900434E1,-4.018896568E-1,-1.708339920E0,1.051647239E1
4.191332875E0,1.025551105E1,-3.079094061E-1,-1.606710781E0,1.038517379E1
4.201358875E0,1.014846725E1,-1.722487588E-1,-1.550398732E0,1.026765764E1
4.211385875E0,1.005755942E1,-4.435787329E-2,-1.463753082E0,1.016361363E1
4.221411875E0,1.000442928E1,7.479816735E-2,-1.394169754E0,1.010138155E1
4.231437875E0,9.983599155E0,1.277601911E-1,-1.345541532E0,1.007467403E1
4.241463875E0,9.926268375E0,1.643134841E-1,-1.260538073E0,1.000733526E1
4.251489875E0,9.877846413E0,1.965477222E-1,-1.218660314E0,9.954677982E0
4.261516875E0,9.839579895E0,1.982536474E-1,-1.218947997E0,9.916777260E0
4.271542875E0,9.881938294E0,2.150126445E-1,-1.238704131E0,9.961592383E0
4.281568875E0,9.881258848E0,2.668759856E-1,-1.287787267E0,9.968394818E0
4.291594875E0,9.898667178E0,2.637035604E-1,-1.331205328E0,9.991259135E0
4.301621875E0,9.924234713E0,2.587863810E-1,-1.343918052E0,1.001815955E1
4.311647875E0,9.919996651E0,2.701895844E-1,-1.304269545E0,1.000901868E1
4.321673875E0,9.878148129E0,3.826222041E-1,-1.309303851E0,9.971884816E0
4.331699875E0,9.820532005E0,7.025414988E-1,-1.385359901E0,9.942617134E0
4.341726875E0,9.874078467E0,1.139787807E0,-1.481589137E0,1.004946009E1
4.351752875E0,9.931474736E0,1.444553457E0,-1.574328170E0,1.015871224E1
4.361778875E0,9.832787769E0,1.857294085E0,-1.805261759E0,1.016819682E1
4.371804875E0,9.684903499E0,1.969368544E0,-1.970776408E0,1.007768465E1
4.381831875E0,9.243863810E0,2.155345670E0,-1.821612474E0,9.665030010E0
4.391857875E0,2.737956390E0,1.845087730E0,-3.190886393E0,4.591569437E0
4.401883875E0,-3.235861304E1,-5.929287756E0,-1.254449250E1,3.520796193E1
4.411909875E0,-5.169910678E1,-1.292731205E1,-1.553248753E1,5.550829854E1
4.421935875E0,-9.622183340E0,5.935664729E0,3.001538347E0,1.169733989E1
4.431962875E0,-1.020868421E1,6.981762600E0,8.316788937E0,1.490406725E1
4.441988875E0,-2.112926459E1,-6.176036748E-1,5.194415540E0,2.176715896E1
4.452014875E0,-2.330300677E1,-3.376668221E0,1.243034433E0,2.357916766E1
4.462040875E0,-1.548032335E1,-1.524913204E0,2.601130375E0,1.577122856E1
4.472067875E0,-7.441069576E0,5.674021125E-1,3.842911749E0,8.394011693E0
4.482093875E0,-3.994312534E0,1.341041368E0,2.565836581E0,4.933197942E0
4.492119875E0,-4.558362438E0,1.020835560E0,1.687866626E0,4.966856864E0
4.502145875E0,-1.333156398E1,-8.577736723E-1,-3.168172299E0,1.372966458E1
4.512172750E0,-1.398934417E1,4.409970045E-2,-3.090869769E0,1.432679905E1
4.522198750E0,-1.028927756E1,1.358964546E0,6.965881562E-1,1.040198310E1
4.532224750E0,-1.004712331E1,1.287381178E0,8.320120827E-1,1.016337941E1
4.542250750E0,-1.167769891E1,1.072642183E0,7.609803993E-2,1.172710553E1
4.552277750E0,-1.440642372E1,3.727246953E-1,6.362297610E-1,1.442528185E1
4.562303750E0,-1.825906757E1,-1.003563762E0,1.308758891E0,1.833339954E1
4.572329750E0,-1.839255483E1,-1.811590639E0,1.613283051E0,1.855183592E1
4.582355750E0,-1.574544663E1,-1.820827924E0,2.017578253E0,1.597827043E1
4.592382750E0,-1.237889000E1,-1.384649025E0,2.598900247E0,1.272432525E1
4.602408750E0,-9.867713188E0,-9.813958711E-1,2.463923120E0,1.021791655E1
4.612434750E0,-8.037487326E0,-7.117595612E-1,1.943570044E0,8.299714978E0
4.622460750E0,-6.697100846E0,-5.228972000E-1,1.382846621E0,6.858341345E0
4.632486750E0,-5.397155464E0,-2.032921200E-1,1.128022624E0,5.517522073E0
4.642513750E0,-3.820050890E0,1.638785975E-1,9.780637622E-1,3.946676288E0
4.652539750E0,-2.013667635E0,5.172172147E-1,9.512343979E-1,2.286310974E0
4.662565750E0,-1.432561988E-1,7.240735781E-1,8.816689038E-1,1.149845616E0
4.672591750E0,1.652512606E0,8.775063441E-1,7.686211753E-1,2.022768847E0
4.682618750E0,3.325909127E0,9.811689261E-1,6.593542564E-1,3.529746736E0
4.692644750E0,4.644425851E0,1.004755425E0,5.362387919E-1,4.782026452E0
4.702670750E0,5.781737362E0,1.028516828E0,3.468053770E-1,5.882738118E0
4.712696750E0,6.745632151E0,1.062809724E0,1.972102118E-1,6.831691555E0
4.722723750E0,7.537953846E0,9.892535788E-1,5.683025837E-2,7.602802148E0
4.732749750E0,8.162095585E0,9.191271906E-1,-1.100995624E-1,8.214421528E0
4.742775750E0,8.722134299E0,8.510032544E-1,-2.763534451E-1,8.767907646E0
4.752801750E0,9.109081396E0,7.608107570E-1,-4.287014794E-1,9.150845963E0
4.762828750E0,9.495405765E0,6.491238948E-1,-5.939250827E-1,9.536080928E0
4.772854750E0,9.821722498E0,5.716769388E-1,-7.250676048E-1,9.865027642E0
4.782880750E0,1.007505429E1,5.373570719E-1,-7.321497524E-1,1.011590405E1
4.792906750E0,1.023690989E1,5.152790820E-1,-7.220422554E-1,1.027527040E1
4.802932750E0,1.031847387E1,5.063487026E-1,-7.055180240E-1,1.035495281E1
4.812959750E0,1.035324960E1,5.065495545E-1,-6.574118114E-1,1.038646042E1
4.822985750E0,1.039776446E1,5.118588263E-1,-5.756642282E-1,1.042625985E1
4.833011750E0,1.043713844E1,5.419037937E-1,-5.036674619E-1,1.046332640E1
4.843037750E0,1.044708923E1,5.638683477E-1,-4.352807665E-1,1.047134615E1
4.853064750E0,1.044674892E1,6.006645834E-1,-3.508621752E-1,1.046988373E1
4.863090750E0,1.043807984E1,6.486677389E-1,-2.482236417E-1,1.046116129E1
4.873116750E0,1.038881822E1,7.147525316E-1,-1.534718692E-1,1.041450761E1
4.883142750E0,1.039247623E1,7.816929182E-1,-1.214817524E-2,1.042184023E1
4.893169750E0,1.035378404E1,8.817159739E-1,1.754842973E-1,1.039274082E1
4.903195750E0,1.030945045E1,1.030563280E0,3.997425957E-1,1.036854008E1
4.913221750E0,1.024007207E1,1.204913291E0,5.791222715E-1,1.032696831E1
4.923247750E0,1.009202174E1,1.390030218E0,6.089600283E-1,1.020548475E1
4.933274750E0,9.924053450E0,1.586385275E0,5.348746365E-1,1.006427076E1
4.943300750E0,9.706141756E0,1.998444116E0,3.327346373E-1,9.915325461E0
4.953326750E0,9.289735801E0,2.366291137E0,1.658113215E-1,9.587805713E0
4.963352750E0,9.083117419E0,2.516172670E0,1.265548698E-1,9.426036447E0
4.973378750E0,9.215548083E0,2.785863505E0,8.547635257E-2,9.627807027E0
4.983405750E0,9.247629417E0,2.845745718E0,-1.210092974E-1,9.676340309E0
4.993431750E0,9.153919600E0,2.814080414E0,-1.102936900E-1,9.577340827E0
5.003457750E0,8.915061425E0,2.763145026E0,-2.748702988E-2,9.333490568E0
5.013483750E0,8.788301391E0,2.781095686E0,-1.606504959E-1,9.219248512E0
5.023510750E0,8.870878694E0,2.983399992E0,-5.330087900E-1,9.374287316E0
5.033536750E0,8.816320664E0,3.200789822E0,-5.238241298E-1,9.393985163E0
5.043562750E0,-4.208377930E0,1.180621691E0,3.746262829E-1,4.386873286E0
5.053588750E0,-2.928341264E1,-5.047414200E0,2.230500956E0,2.979882180E1
5.063615750E0,-2.294027124E1,-4.311050944E0,-3.950678565E-1,2.334517688E1
5.073641750E0,-1.869922024E1,1.434290425E0,3.761499211E-2,1.875418464E1
5.083667750E0,-2.027108512E1,4.048714152E0,1.986899520E0,2.076672213E1
5.093693750E0,-1.944365031E1,2.265109310E0,2.395735815E0,1.972120199E1
5.103720750E0,-1.605343000E1,-4.779187361E-1,6.074580248E-1,1.607202621E1
5.113746750E0,-1.121785984E1,-1.507684675E0,-9.220503598E-1,1.135621721E1
5.123772750E0,-8.526143231E0,-1.766528779E0,-1.471469653E0,8.830683171E0
5.133798750E0,-8.713987373E0,-2.061692863E0,-1.504141263E0,9.080010702E0
5.143825750E0,-1.011990126E1,-2.364115535E0,-1.364574072E0,1.048157937E1
5.153851750E0,-1.100414879E1,-2.532380275E0,-8.162794912E-1,1.132124342E1
5.163877750E0,-1.147456196E1,-2.759792525E0,-3.384584767E-1,1.180663293E1
5.173903750E0,-1.179873628E1,-3.075436336E0,-4.861702538E-1,1.220265741E1
5.183929750E0,-1.230741831E1,-3.345434150E0,-1.008664581E0,1.279382192E1
5.193956750E0,-1.278687830E1,-3.664562024E0,-1.398975581E0,1.337499174E1
5.203982750E0,-1.280741138E1,-3.875823387E0,-1.371836314E0,1.345116085E1
5.214008750E0,-1.234358568E1,-4.006972926E0,-8.548874867E-1,1.300579763E1
5.224034750E0,-1.192318958E1,-4.106559194E0,-3.086031783E-1,1.261433764E1
5.234061750E0,-1.143997334E1,-4.094192626E0,9.129608631E-2,1.215087397E1
5.244087750E0,-1.071630205E1,-3.938422216E0,4.026416087E-1,1.142420323E1
5.254113750E0,-9.893721603E0,-3.775872252E0,6.656540465E-1,1.061065661E1
5.264139750E0,-8.839459265E0,-3.336324188E0,8.244211543E-1,9.484027068E0
5.274166750E0,-7.402914739E0,-2.793062305E0,6.865426397E-1,7.942020176E0
5.284192750E0,-5.584579191E0,-2.247387276E0,4.502736121E-1,6.036639846E0
5.294218750E0,-3.856902966E0,-1.720517039E0,2.355258465E-1,4.229816994E0
5.304244750E0,-2.122701834E0,-1.214717537E0,1.914378405E-1,2.453171461E0
5.314271750E0,-3.557048392E-1,-7.600212367E-1,2.017856580E-1,8.630617965E-1
5.324297750E0,1.190983104E0,-3.903121698E-1,2.121849310E-1,1.271143889E0
5.334323750E0,2.746114426E0,-1.862177387E-2,2.271432781E-1,2.755555348E0
5.344349750E0,4.127071227E0,3.124534236E-1,2.414970231E-1,4.145921474E0
5.354375750E0,5.297763907E0,5.895855716E-1,1.846948314E-1,5.333669070E0
5.364402750E0,6.340859817E0,8.545448399E-1,1.133026671E-1,6.399186480E0
5.374428750E0,7.225815441E0,1.094221771E0,5.547194104E-2,7.308406612E0
5.384454750E0,7.896433189E0,1.295231796E0,1.573951682E-2,8.001970398E0
5.394480750E0,8.399972012E0,1.410590929E0,3.288492355E-3,8.517588120E0
5.404507750E0,8.885441185E0,1.519754937E0,-1.747793058E-2,9.014489758E0
5.414533750E0,9.237499115E0,1.567280667E0,-5.997372150E-2,9.369704128E0
5.424559750E0,9.429493026E0,1.601478985E0,-7.175118327E-2,9.564790740E0
5.434585750E0,9.472570049E0,1.656866296E0,-1.131558655E-1,9.617047026E0
5.444612750E0,9.458882886E0,1.704770342E0,-1.939626682E-1,9.613237170E0
5.454638750E0,9.436478110E0,1.729626563E0,-3.222423935E-1,9.599092005E0
5.464664750E0,9.493391984E0,1.724807872E0,-4.416214871E-1,9.658906930E0
5.474690750E0,9.576307256E0,1.778142373E0,-4.970361346E-1,9.752666090E0
5.484717750E0,9.616047272E0,1.914743417E0,-3.571713575E-1,9.811329108E0
5.494743750E0,9.544918233E0,2.086120338E0,-1.968348571E-1,9.772210911E0
5.504769750E0,9.497395572E0,2.233466079E0,-9.778360862E-2,9.756969561E0
5.514795750E0,9.467277149E0,2.351330305E0,-5.717582881E-2,9.755068421E0
5.524822750E0,9.466144543E0,2.443405095E0,-9.898524798E-2,9.776907438E0
5.534848750E0,9.481042079E0,2.527145263E0,-1.276927380E-1,9.812895980E0
5.544874750E0,9.548245883E0,2.624289149E0,-2.130152357E-1,9.904608446E0
5.554900750E0,9.681901538E0,2.693009136E0,-3.376047832E-1,1.005512270E1
5.564926750E0,9.845277421E0,2.664859470E0,-5.024220049E-1,1.021192398E1
5.574953750E0,9.881483381E0,2.583343437E0,-5.809207289E-1,1.023009511E1
5.584979750E0,9.973493997E0,2.520699292E0,-6.874774633E-1,1.031005008E1
5.595005750E0,9.895128443E0,2.537002499E0,-7.957978642E-1,1.024613307E1
5.605031750E0,9.926614530E0,2.583172991E0,-8.827484460E-1,1.029513009E1
5.615058750E0,1.003226436E1,2.612781244E0,-1.092489095E0,1.042432187E1
5.625084750E0,1.017550711E1,2.646705328E0,-1.297212248E0,1.059380733E1
5.635110750E0,1.026278382E1,2.744511996E0,-1.550639930E0,1.073599376E1
5.645136750E0,1.005339620E1,2.974033337E0,-1.769152279E0,1.063228805E1
5.655163750E0,9.429959634E0,3.120212851E0,-1.877150498E0,1.010858847E1
5.665189750E0,9.247682042E0,3.139901888E0,-1.802909570E0,9.931217948E0
5.675215750E0,9.489644503E0,3.311486385E0,-1.679280282E0,1.019015589E1
5.685241750E0,8.316582531E0,3.716014598E0,-1.861297381E0,9.297243539E0
5.695268750E0,3.128080865E0,3.352178328E0,-2.943599457E0,5.448556433E0
5.705294750E0,-1.420605835E1,-9.591293085E-1,-5.966579543E0,1.543800811E1
5.715320750E0,-3.904114789E1,-1.351769606E1,-1.017653739E1,4.254998529E1
5.725346750E0,-5.133478314E1,-2.821072690E1,-1.315911790E1,6.003555160E1
5.735373750E0,-1.709030974E1,-1.009150718E1,5.235117424E-1,1.985425064E1
5.745399750E0,1.744265360E0,4.242954563E0,7.651486309E0,8.921343385E0
5.755425750E0,2.771570864E0,5.411315081E0,7.628654101E0,9.755014062E0
5.765451750E0,-6.742487519E0,5.928015402E-1,7.865359331E0,1.037672535E1
5.775477750E0,-1.661156545E1,-2.229257399E0,6.042730172E0,1.781651714E1
5.785504750E0,-1.386108666E1,3.698083234E-1,4.415091037E0,1.455195899E1
5.795530750E0,-7.268024152E0,3.692387753E0,4.221404357E0,9.180313564E0
5.805556750E0,-8.228532234E0,4.080408692E0,4.583266314E0,1.026473614E1
5.815582750E0,-1.684790990E1,2.078384325E0,1.772690429E0,1.706792843E1
5.825609750E0,-1.761932371E1,1.746960341E0,-5.793842999E-1,1.771519474E1
5.835635750E0,-1.242257688E1,2.730045985E0,3.341320487E-1,1.272341195E1
5.845661750E0,-1.115477891E1,2.462261634E0,1.351704351E0,1.150299654E1
5.855687750E0,-1.262632428E1,1.461407472E0,1.372150894E0,1.278446615E1
5.865714750E0,-1.413206300E1,4.025517809E-1,1.928395935E0,1.426870574E1
5.875740750E0,-1.521404465E1,-5.427803645E-1,2.850236964E0,1.548824122E1
5.885766750E0,-1.488023764E1,-9.033380272E-1,3.446700908E0,1.530089013E1
5.895792750E0,-1.298816519E1,-8.104630465E-1,3.232256028E0,1.340883158E1
5.905819750E0,-1.076724066E1,-8.007233394E-1,2.644651201E0,1.111615083E1
5.915845750E0,-9.071927018E0,-7.831383500E-1,2.074758174E0,9.339046364E0
5.925871750E0,-7.979795188E0,-8.579318395E-1,1.645678965E0,8.192767392E0
5.935897750E0,-6.779937766E0,-8.209272236E-1,1.355268229E0,6.962630938E0
5.945924750E0,-5.094902362E0,-7.363057340E-1,1.217323714E0,5.289806540E0
5.955950750E0,-3.144304549E0,-6.247880025E-1,1.188629453E0,3.419042428E0
5.965976750E0,-1.125439909E0,-5.403477035E-1,1.160666533E0,1.704622372E0
5.976002750E0,8.273658121E-1,-3.653860742E-1,1.078311936E0,1.407408186E0
5.986028750E0,2.631748150E0,-1.598845837E-1,9.729843590E-1,2.810402101E0
5.996055750E0,4.230502625E0,4.377693415E-2,8.453226113E-1,4.314352697E0
6.006081750E0,5.500574582E0,2.108325431E-1,7.062207862E-1,5.549731425E0
6.016107750E0,6.651961511E0,3.602902988E-1,5.645626680E-1,6.685591376E0
6.026133750E0,7.571906873E0,4.605629575E-1,3.749123579E-1,7.595159722E0
6.036160750E0,8.334532313E0,5.276112252E-1,1.758199275E-1,8.353066212E0
6.046186750E0,8.924112330E0,5.513237312E-1,-1.167221189E-2,8.941133875E0
6.056212750E0,9.351238570E0,5.482748468E-1,-1.887815600E-1,9.369199890E0
6.066238750E0,9.602385253E0,5.035920328E-1,-3.850900215E-1,9.623289552E0
6.076265750E0,9.805635638E0,4.205363544E-1,-5.591720834E-1,9.830565320E0
6.086291750E0,9.946495063E0,3.488782880E-1,-6.770035652E-1,9.975610955E0
6.096317750E0,1.004137666E1,3.139455599E-1,-7.422637544E-1,1.007366679E1
6.106343750E0,1.012244948E1,3.114573504E-1,-7.786539741E-1,1.015713006E1
6.116370750E0,1.011874000E1,3.352300096E-1,-7.806307715E-1,1.015434207E1
6.126396750E0,1.012416388E1,3.539913858E-1,-7.752343762E-1,1.015997010E1
6.136422750E0,1.016809986E1,3.605472840E-1,-7.968691472E-1,1.020564792E1
6.146448750E0,1.023019729E1,3.788077730E-1,-8.439227879E-1,1.027193446E1
6.156475750E0,1.027588743E1,3.905627961E-1,-8.443028569E-1,1.031790915E1
6.166501750E0,1.030414819E1,4.099847614E-1,-8.078595006E-1,1.034389649E1
6.176527750E0,1.033218209E1,4.468902670E-1,-8.144213191E-1,1.037386040E1
6.186553750E0,1.036586439E1,4.918631760E-1,-7.833351088E-1,1.040704991E1
6.196579750E0,1.039358019E1,5.430231701E-1,-7.284543852E-1,1.043321758E1
6.206606750E0,1.043115206E1,6.066887505E-1,-6.942293894E-1,1.047181737E1
6.216632750E0,1.045743880E1,6.767522811E-1,-6.093494529E-1,1.049701513E1
6.226658750E0,1.044649749E1,7.358431461E-1,-5.226405072E-1,1.048541502E1
6.236684750E0,1.042028091E1,7.937074115E-1,-4.551519442E-1,1.046037232E1
6.246711750E0,1.040570965E1,8.588852280E-1,-4.067171180E-1,1.044901412E1
6.256737750E0,1.038463629E1,9.300521283E-1,-3.142398942E-1,1.043093546E1
6.266763750E0,1.034607156E1,9.886501461E-1,-2.662026787E-1,1.039660953E1
6.276789750E0,1.028349817E1,1.052948176E0,-1.806579137E-1,1.033884286E1
6.286816750E0,1.003637145E1,1.086770079E0,-1.088681297E-1,1.009562644E1
6.296842750E0,9.494924539E0,1.081989688E0,-6.193137844E-2,9.556575180E0
6.306868750E0,9.360661358E0,1.117782542E0,9.523949423E-3,9.427168693E0
6.316894750E0,9.352957651E0,1.167713086E0,6.767099619E-2,9.425812964E0
6.326920750E0,9.296950096E0,1.137708829E0,9.383260846E-2,9.366774633E0
6.336947750E0,9.101268931E0,1.025387910E0,1.165355927E-1,9.159590442E0
6.346973750E0,7.890543873E0,3.452408083E-1,1.317646476E-1,7.899192095E0
6.356999750E0,-7.999560531E0,-3.632267267E0,-4.876297188E-1,8.799097507E0
6.367025750E0,-2.421680028E1,-7.768987277E0,9.607654325E-1,2.545061196E1
6.377052750E0,-1.830274627E1,-6.497291547E-1,2.293455734E0,1.845731856E1
6.387078750E0,-2.918844918E1,2.241544446E0,7.922608835E0,3.032750926E1
6.397104750E0,-3.541093212E1,-7.079826254E-1,1.134489411E1,3.719061676E1
6.407130750E0,-2.345516068E1,3.320276358E-1,7.552449678E0,2.464334192E1
6.417157750E0,-1.774997857E1,-7.021181604E-1,-4.292943140E-1,1.776904620E1
6.427183750E0,-1.637920762E1,-1.595359581E0,-6.273361899E0,1.761189042E1
6.437209750E0,-1.003471434E1,1.180169117E-2,-3.153210443E0,1.051847743E1
6.447235750E0,-6.914645920E0,1.443533411E0,7.567524970E-1,7.104139022E0
6.457262750E0,-9.277264860E0,6.420087104E-1,5.464245685E-1,9.315492379E0
6.467288750E0,-1.177642798E1,1.283419982E-1,-8.034191251E-1,1.180449956E1
6.477314750E0,-1.286834405E1,6.705695084E-1,-1.992666775E0,1.303896709E1
6.487340750E0,-1.384899696E1,1.116276737E0,-2.216385924E0,1.406958269E1
6.497367750E0,-1.344819020E1,1.237067641E0,-1.168520513E0,1.355542682E1
6.507393750E0,-1.251761636E1,8.893620855E-1,-8.681092107E-1,1.257916125E1
6.517419625E0,-1.223524145E1,3.017926338E-1,-8.469949150E-1,1.226823592E1
6.527445625E0,-1.176537674E1,-1.405354893E-1,-4.437849569E-1,1.177458217E1
6.537472625E0,-1.111590077E1,-4.250136040E-1,7.144831577E-2,1.112425240E1
6.547498625E0,-1.017388626E1,-7.278464209E-1,5.283696091E-1,1.021356434E1
6.557524625E0,-8.737480901E0,-9.025093306E-1,7.847279155E-1,8.818950816E0
6.567550625E0,-7.317767585E0,-1.041858347E0,7.683229673E-1,7.431386911E0
6.577577625E0,-5.774410801E0,-1.173410759E0,5.442997634E-1,5.917514270E0
6.587603625E0,-4.010321041E0,-1.197667860E0,2.044022870E-1,4.190329755E0
6.597629625E0,-2.248848495E0,-1.212899637E0,1.489168882E-2,2.555125603E0
6.607655625E0,-3.504949701E-1,-1.109249481E0,-4.947912058E-2,1.164357899E0
6.617681625E0,1.489716182E0,-9.432932943E-1,-5.660455585E-2,1.764160032E0
6.627708625E0,3.030781442E0,-7.087070223E-1,-9.684156736E-2,3.114045613E0
6.637734625E0,4.340210423E0,-4.295402625E-1,-4.778227687E-2,4.361675653E0
6.647760625E0,5.516553268E0,-1.927271515E-1,1.087020779E-1,5.520989029E0
6.657786625E0,6.663965260E0,3.459578231E-3,2.556402866E-1,6.668867738E0
6.667813625E0,7.626958993E0,1.225761319E-1,3.508914113E-1,7.636010292E0
6.677839625E0,8.389664540E0,1.922187361E-1,2.634252512E-1,8.395999762E0
6.687865625E0,9.061531838E0,2.408418426E-1,1.031846452E-1,9.065319140E0
6.697891625E0,9.521946276E0,3.200335347E-1,-1.762820402E-2,9.527339246E0
6.707918625E0,9.811204526E0,4.483542636E-1,-9.917579412E-2,9.821944392E0
6.717944625E0,9.988695588E0,5.606772298E-1,-1.311249804E-1,1.000527822E1
6.727970625E0,1.006819199E1,6.522794178E-1,-1.689588046E-1,1.009071383E1
6.737996625E0,1.009550668E1,6.893911108E-1,-2.002133417E-1,1.012099800E1
6.748023625E0,1.011345646E1,7.297863809E-1,-2.598210275E-1,1.014308122E1
6.758049625E0,1.014195579E1,7.550677679E-1,-3.043534037E-1,1.017457741E1
6.768075625E0,1.015270063E1,7.791604891E-1,-3.471339905E-1,1.018847011E1
6.778101625E0,1.017583456E1,8.243859979E-1,-4.398743391E-1,1.021864524E1
6.788128625E0,1.024108247E1,8.374286509E-1,-4.962075841E-1,1.028723864E1
6.798154625E0,1.027672709E1,8.528837190E-1,-5.333795035E-1,1.032584254E1
6.808180625E0,1.027975829E1,8.834058923E-1,-5.540540886E-1,1.033251239E1
6.818206625E0,1.027996177E1,9.169738072E-1,-5.409656811E-1,1.033494552E1
6.828232625E0,1.027347370E1,9.573345787E-1,-4.955947959E-1,1.032987733E1
6.838259625E0,1.024665837E1,9.707747693E-1,-4.794377697E-1,1.030370186E1
6.848285625E0,1.025334759E1,9.825868759E-1,-4.669960642E-1,1.031090195E1
6.858311625E0,1.030608830E1,1.012759240E0,-4.380500078E-1,1.036499036E1
6.868337625E0,1.029237190E1,1.028196693E0,-4.277226555E-1,1.035244196E1
6.878364625E0,1.022766895E1,1.038472151E0,-3.744416936E-1,1.028707165E1
6.888390625E0,1.019330837E1,1.046968521E0,-3.410727668E-1,1.025260988E1
6.898416625E0,1.019533502E1,1.091128448E0,-2.783520234E-1,1.025733383E1
6.908442625E0,1.017920138E1,1.135535712E0,-2.465151036E-1,1.024530877E1
6.918469625E0,1.009387998E1,1.190785541E0,-1.896380858E-1,1.016564537E1
6.928495625E0,9.920557984E0,1.303592876E0,-3.856299022E-2,1.000591386E1
6.938521625E0,9.583677671E0,1.376951458E0,2.366227841E-1,9.684981330E0
6.948547625E0,9.284175099E0,1.498386725E0,6.045681481E-1,9.423723929E0
6.958573625E0,9.033436552E0,1.590010841E0,9.768235677E-1,9.224169051E0
6.968600625E0,8.624620868E0,1.725678669E0,1.022179177E0,8.854767205E0
6.978626625E0,8.461639087E0,1.887507964E0,5.110319569E-1,8.684651750E0
6.988652625E0,8.546861671E0,1.868236710E0,-7.944970049E-2,8.749026522E0
6.998678625E0,-2.131782560E0,-5.089822154E-1,-2.818399606E-1,2.209749656E0
7.008705625E0,-4.334325786E1,-1.014874207E1,1.816205554E0,4.455259330E1
7.018731625E0,-2.974387620E1,-2.173840413E0,1.805994415E-1,2.982375512E1
7.028757625E0,-3.420046025E1,4.492536238E0,3.475448159E0,3.466890686E1
7.038783625E0,-3.863561308E1,6.672496786E-1,5.360826713E0,3.901146348E1
7.048810625E0,-2.337514504E1,3.584194091E-1,1.562697619E0,2.343006389E1
7.058836625E0,-1.593277855E1,3.604538747E-1,2.088591810E-1,1.593822392E1
7.068862625E0,-1.338152376E1,2.806016665E-1,8.404882065E-1,1.341082905E1
7.078888625E0,-1.289120783E1,5.039574838E-1,1.601109148E0,1.300002934E1
7.088915625E0,-1.303779168E1,5.174965289E-1,1.826323284E0,1.317525223E1
7.098941625E0,-1.361170759E1,1.312454331E-1,1.615727187E0,1.370789492E1
7.108967625E0,-1.408046016E1,-5.917037255E-1,1.355409147E0,1.415791671E1
7.118993625E0,-1.356492986E1,-1.136836352E0,1.410007523E0,1.368531477E1
7.129020625E0,-1.270684980E1,-1.371916421E0,1.291483292E0,1.284578201E1
7.139046625E0,-1.214830388E1,-1.638732180E0,6.965489068E-1,1.227810697E1
7.149072625E0,-1.162471846E1,-1.995222885E0,2.048267949E-1,1.179648031E1
7.159098625E0,-1.111584698E1,-2.245741285E0,-4.907568097E-2,1.134053863E1
7.169125625E0,-1.062485745E1,-2.375351544E0,7.054190598E-2,1.088737190E1
7.179151625E0,-9.711631122E0,-2.384056294E0,2.275947563E-1,1.000256481E1
7.189177625E0,-8.084609452E0,-2.253959839E0,3.434811618E-1,8.399953825E0
7.199203625E0,-6.101597015E0,-2.038366858E0,3.516983271E-1,6.442679357E0
7.209229625E0,-4.049857575E0,-1.767888696E0,1.262238443E-1,4.420713661E0
7.219256625E0,-2.007021105E0,-1.484681729E0,-2.051543851E-1,2.504895581E0
7.229282625E0,1.289065468E-1,-1.097960042E0,-4.661821318E-1,1.199774534E0
7.239308625E0,2.003501666E0,-7.101995972E-1,-6.837938637E-1,2.232930012E0
7.249334625E0,3.805258019E0,-3.437711106E-1,-7.810465816E-1,3.899769343E0
7.259361625E0,5.393443651E0,7.528100118E-2,-9.036194245E-1,5.469134274E0
7.269387625E0,6.666762568E0,4.419144326E-1,-9.515314364E-1,6.748809049E0
7.279413625E0,7.655955920E0,7.209773313E-1,-8.977632918E-1,7.742057110E0
7.289439625E0,8.469049848E0,9.328093828E-1,-8.635915788E-1,8.563920194E0
7.299466625E0,9.170770106E0,1.075929341E0,-8.612176824E-1,9.273744884E0
7.309492625E0,9.654007981E0,1.184476760E0,-7.633575118E-1,9.756309240E0
7.319518625E0,9.930331020E0,1.289460009E0,-6.330230749E-1,1.003368823E1
7.329544625E0,9.999120004E0,1.311488809E0,-5.371626520E-1,1.009905676E1
7.339571625E0,1.004701221E1,1.296918425E0,-4.411712515E-1,1.013997455E1
7.349597625E0,1.003558207E1,1.306908539E0,-2.868129444E-1,1.012438537E1
7.359623625E0,9.992184037E0,1.320041970E0,-9.986810446E-2,1.007949534E1
7.369649625E0,1.000222137E1,1.316793111E0,8.706503193E-2,1.008890265E1
7.379676625E0,9.993597894E0,1.327331402E0,2.855008292E-1,1.008540124E1
7.389702625E0,9.992648306E0,1.344412580E0,4.786881566E-1,1.009403823E1
7.399728625E0,1.001332640E1,1.331808615E0,6.379546165E-1,1.012163059E1
7.409754625E0,1.005332603E1,1.303503706E0,7.970082378E-1,1.016876140E1
7.419780625E0,1.009001146E1,1.277745259E0,9.807862258E-1,1.021777402E1
7.429807625E0,1.010267419E1,1.260122336E0,1.057996954E0,1.023578486E1
7.439833625E0,1.006803295E1,1.252353725E0,9.786350352E-1,1.019271327E1
7.449859625E0,9.984452848E0,1.300114952E0,7.752174193E-1,1.009854245E1
7.459885625E0,9.925335159E0,1.298144732E0,6.872869903E-1,1.003343516E1
7.469912625E0,9.881803808E0,1.250396369E0,5.260277992E-1,9.974479577E0
7.479938625E0,9.857786955E0,1.206981305E0,3.032454477E-1,9.936031668E0
7.489964625E0,9.914725971E0,1.143911190E0,1.281395383E-1,9.981319734E0
7.499990625E0,1.001658213E1,1.046648971E0,-9.535171509E-2,1.007156808E1
7.510017625E0,1.007121617E1,1.001932681E0,-3.603890437E-1,1.012734637E1
7.520044375E0,1.014065303E1,9.694250858E-1,-6.075363775E-1,1.020498551E1
7.530070375E0,1.019799784E1,9.885381719E-1,-8.579083045E-1,1.028165232E1
7.540096375E0,1.028151245E1,1.139561812E0,-1.106530160E0,1.040348540E1
7.550123375E0,1.035530198E1,1.402135124E0,-1.323576466E0,1.053328612E1
7.560149375E0,1.011330326E1,1.678340927E0,-1.530663064E0,1.036526220E1
7.570175375E0,9.870623932E0,2.126523575E0,-1.825751280E0,1.026083267E1
7.580201375E0,9.749381331E0,2.830060270E0,-2.063030414E0,1.035933260E1
7.590227375E0,9.716175578E0,3.627653521E0,-2.230557382E0,1.060845531E1
7.600254375E0,9.705503240E0,4.137664627E0,-2.391373208E0,1.081830521E1
7.610280375E0,9.636310213E0,4.448052668E0,-2.426339411E0,1.088718375E1
7.620306375E0,8.780664343E0,4.964187856E0,-2.528540701E0,1.039888193E1
7.630332375E0,-1.246097555E1,1.866783823E0,-3.394708636E0,1.304932336E1
7.640359375E0,-3.873669507E1,-4.910690510E0,-2.463792143E0,3.912437472E1
7.650385375E0,-3.980295121E1,-7.830181897E0,-3.627740645E0,4.072771999E1
7.660411375E0,-3.764770027E1,-1.056294830E1,-4.166293180E0,3.932280777E1
7.670437375E0,-3.396061915E1,-1.464370490E1,-4.050761554E0,3.720444081E1
7.680464375E0,-1.812190710E1,-6.351864862E0,2.287743005E0,1.933865228E1
7.690490375E0,-1.072633354E1,7.713277783E-1,6.363416621E0,1.249568921E1
7.700516375E0,-1.320705922E1,6.165044714E-1,7.577570486E0,1.523896536E1
7.710542375E0,-1.518239367E1,-3.593318671E-2,7.938403918E0,1.713256039E1
7.720569375E0,-1.690254395E1,-2.901663957E-1,8.421933569E0,1.888674544E1
7.730595375E0,-1.778948938E1,-3.367820799E-1,8.314855263E0,1.963965816E1
7.740621375E0,-1.797916487E1,-7.281683832E-1,6.985525868E0,1.930228407E1
7.750647375E0,-1.714417429E1,-1.141493732E0,5.651087176E0,1.808757878E1
7.760674375E0,-1.543041151E1,-1.458475970E0,4.622777120E0,1.617389316E1
7.770700375E0,-1.323794655E1,-1.622442130E0,3.944130560E0,1.390797301E1
7.780726375E0,-1.120904809E1,-1.695321241E0,3.369950940E0,1.182681032E1
7.790752375E0,-9.594119629E0,-1.653283854E0,2.623782488E0,1.008289212E1
7.800779375E0,-8.148426549E0,-1.645074070E0,1.969818049E0,8.543026809E0
7.810805375E0,-6.946163582E0,-1.720824457E0,1.419072607E0,7.295491236E0
7.820831375E0,-5.874560156E0,-1.806527681E0,8.307852638E-1,6.201951584E0
7.830857375E0,-4.392305607E0,-1.666076684E0,3.517661548E-1,4.710827898E0
7.840883375E0,-2.616386345E0,-1.421424357E0,-6.792622715E-2,2.978344957E0
7.850910375E0,-9.589305031E-1,-1.076625672E0,-5.839425699E-1,1.555525465E0
7.860936375E0,7.819235909E-1,-6.309645626E-1,-1.041557508E0,1.447191357E0
7.870962375E0,2.293700733E0,-1.165779119E-1,-1.283018424E0,2.630739390E0
7.880988375E0,3.682938945E0,3.237418389E-1,-1.480631801E0,3.982601987E0
7.891015375E0,4.827308046E0,6.480690571E-1,-1.603595238E0,5.127807929E0
7.901041375E0,5.860226877E0,8.781164280E-1,-1.667359271E0,6.155764327E0
7.911067375E0,6.758528770E0,9.608206887E-1,-1.636516524E0,7.019905545E0
7.921093375E0,7.458526438E0,9.885490624E-1,-1.593496220E0,7.690648612E0
7.931120375E0,7.843403036E0,9.194889870E-1,-1.583361679E0,8.054282426E0
7.941146375E0,8.115436558E0,8.635380037E-1,-1.509673021E0,8.299706082E0
7.951172375E0,8.378893969E0,8.834525970E-1,-1.494183455E0,8.556806462E0
7.961198375E0,8.682324116E0,9.354018921E-1,-1.564438920E0,8.871595002E0
7.971225375E0,9.043056976E0,9.251490187E-1,-1.703094968E0,9.248422170E0
7.981251375E0,9.250262418E0,9.089324239E-1,-2.030193036E0,9.513947483E0
7.991277375E0,9.483713087E0,8.203842366E-1,-2.350329847E0,9.804993351E0
8.001303375E0,9.631017898E0,7.735902122E-1,-2.496024334E0,9.979232689E0
8.011330375E0,9.705326069E0,7.183100507E-1,-2.648069483E0,1.008571244E1
8.021356375E0,9.813571479E0,6.808258901E-1,-2.767287194E0,1.021898172E1
8.031382375E0,9.906210086E0,6.646536610E-1,-2.818182528E0,1.032070325E1
8.041408375E0,9.957396612E0,6.504121095E-1,-2.761528856E0,1.035368653E1
8.051434375E0,1.001688501E1,6.425230461E-1,-2.730559078E0,1.040224851E1
8.061461375E0,1.006701787E1,6.159750060E-1,-2.757479074E0,1.045600138E1
8.071487375E0,1.011685252E1,5.763702064E-1,-2.737469610E0,1.049650644E1
8.081513375E0,1.017741096E1,5.345079430E-1,-2.676711192E0,1.053708572E1
8.091539375E0,1.024511003E1,5.067009974E-1,-2.565866402E0,1.057367939E1
8.101566375E0,1.027290418E1,4.829154012E-1,-2.407867618E0,1.056236688E1
8.111592375E0,1.024058428E1,5.030948002E-1,-2.233887517E0,1.049347055E1
8.121618375E0,1.024665252E1,5.468681529E-1,-2.101080000E0,1.047413433E1
8.131644375E0,1.029177666E1,5.487352420E-1,-1.918802116E0,1.048349077E1
8.141671375E0,1.032900939E1,5.707543212E-1,-1.650267860E0,1.047557060E1
8.151697375E0,1.027071382E1,5.952301812E-1,-1.322882255E0,1.037265052E1
8.161723375E0,1.023389858E1,6.142824563E-1,-8.750182807E-1,1.028959086E1
8.171749375E0,1.039850705E1,5.952146861E-1,-2.373887694E-1,1.041823319E1
8.181775375E0,1.054843902E1,5.413591987E-1,3.474216735E-1,1.056803375E1
8.191802375E0,1.057340312E1,5.067840278E-1,7.707694423E-1,1.061356534E1
8.201828375E0,9.958154411E0,4.279179525E-1,9.950043154E-1,1.001688508E1
8.211854375E0,8.675841308E0,3.282889261E-1,1.066594846E0,8.747320766E0
8.221880375E0,8.310387406E0,2.214260899E-1,8.082788922E-1,8.352537525E0
8.231907375E0,7.901930741E0,1.077236194E-1,3.135556237E-1,7.908883040E0
8.241933375E0,7.608307545E0,-4.065305918E-2,-7.464730918E-2,7.608782333E0
8.251959375E0,7.507012720E0,-1.918082250E-1,-3.263776906E-1,7.516551920E0
8.261985375E0,7.161258087E0,-2.712213439E-1,-7.216446447E-1,7.202634893E0
8.272012375E0,-3.994934678E-1,1.169654507E0,-3.077383751E-1,1.273730586E0
8.282038375E0,-2.700115783E1,-1.383652221E-2,-2.979127139E-2,2.700117781E1
8.292064375E0,-2.351822407E1,-5.354108262E0,-1.402220786E0,2.416070284E1
8.302090375E0,-3.733660501E1,-2.258370979E0,1.640724034E0,3.744081046E1
8.312117375E0,-5.762407169E1,-3.982340653E0,2.708865908E-1,5.776215071E1
8.322143375E0,-5.171439842E1,-8.902052540E-1,3.207923717E0,5.182144579E1
8.332169375E0,-2.752417022E1,3.838332502E0,7.199157400E0,2.870784928E1
8.342195375E0,-1.852690747E1,2.366894132E0,6.046151962E0,1.963172030E1
8.352222375E0,-1.536787203E1,1.681757163E0,4.128604659E0,1.600141164E1
8.362248375E0,-1.285939898E1,2.189303083E0,4.675871300E0,1.385716286E1
8.372274375E0,-1.156835832E1,2.321390807E0,5.148026655E0,1.287314833E1
8.382300375E0,-1.102788614E1,2.231343686E0,4.617171979E0,1.216188491E1
8.392327375E0,-1.029156733E1,2.274558995E0,3.999516556E0,1.127324751E1
8.402353375E0,-9.269996186E0,2.105276547E0,3.829494143E0,1.024841666E1
8.412379375E0,-8.041559912E0,1.740042500E0,3.756697478E0,9.044733808E0
8.422405375E0,-6.623790795E0,1.239841560E0,3.361440318E0,7.530676769E0
8.432431375E0,-4.948746529E0,7.871948558E-1,2.870908041E0,5.775108737E0
8.442458375E0,-3.416418178E0,4.326030341E-1,2.516449828E0,4.265158648E0
8.452484375E0,-2.001206633E0,1.036684657E-1,2.283387852E0,3.037998556E0
8.462510375E0,-7.955680686E-1,-1.351771009E-1,2.188281866E0,2.332333365E0
8.472536375E0,3.536916429E-1,-3.315944668E-1,1.914293474E0,1.974733443E0
8.482563375E0,1.556799533E0,-5.132452742E-1,1.440330745E0,2.182108648E0
8.492589375E0,2.665091313E0,-6.711594924E-1,1.006084643E0,2.926665864E0
8.502615375E0,3.712092578E0,-8.147270554E-1,6.128202139E-1,3.849540245E0
8.512641292E0,4.585347923E0,-9.000873408E-1,2.919655108E-1,4.681967178E0
8.522668292E0,5.385700768E0,-9.419870263E-1,-6.035627559E-2,5.467792535E0
8.532694292E0,6.165073804E0,-9.403272942E-1,-4.549519694E-1,6.252945843E0
8.542720292E0,6.910851662E0,-9.141884860E-1,-8.151774372E-1,7.018555801E0
8.552746292E0,7.546585506E0,-8.667500255E-1,-1.076177263E0,7.672050958E0
8.562772292E0,8.088675606E0,-8.010355076E-1,-1.321248543E0,8.234927362E0
8.572799292E0,8.488588904E0,-7.594056711E-1,-1.536854095E0,8.659951447E0
8.582825292E0,8.844715328E0,-7.477723432E-1,-1.733507798E0,9.043959420E0
8.592851292E0,9.131615396E0,-7.086761051E-1,-1.927209681E0,9.359634539E0
8.602877292E0,9.367831798E0,-7.146405575E-1,-2.135708527E0,9.634741026E0
8.612904292E0,9.544254574E0,-6.966656318E-1,-2.298002529E0,9.841694671E0
8.622930292E0,9.654054759E0,-6.556278259E-1,-2.402482625E0,9.970082441E0
8.632956292E0,9.755262460E0,-6.141146412E-1,-2.482361730E0,1.008486005E1
8.642982292E0,9.818037583E0,-5.861974025E-1,-2.510533031E0,1.015087511E1
8.653009292E0,9.866701620E0,-5.362952176E-1,-2.542947071E0,1.020323445E1
8.663035292E0,9.891727703E0,-5.147742480E-1,-2.584783899E0,1.023681480E1
8.673061292E0,9.909362905E0,-4.747813395E-1,-2.595938632E0,1.025474465E1
8.683087292E0,9.899580513E0,-4.216035444E-1,-2.588970505E0,1.024120170E1
8.693114292E0,9.905711904E0,-3.766788018E-1,-2.553362131E0,1.023643851E1
8.703140292E0,9.905187993E0,-3.402541566E-1,-2.530586641E0,1.022899755E1
8.713166292E0,9.898608706E0,-3.328717545E-1,-2.494746133E0,1.021357020E1
8.723192292E0,9.915130599E0,-3.474567568E-1,-2.414291515E0,1.021074652E1
8.733218292E0,9.965882092E0,-3.589915591E-1,-2.349641045E0,1.024541331E1
8.743245292E0,9.984096168E0,-3.564053357E-1,-2.264672523E0,1.024392223E1
8.753271292E0,1.001976068E1,-3.717028213E-1,-2.170597547E0,1.025891128E1
8.763297292E0,1.006861533E1,-3.468822679E-1,-2.067139837E0,1.028447418E1
8.773323292E0,1.006667289E1,-3.266932940E-1,-1.931982032E0,1.025559292E1
8.783350292E0,1.006888196E1,-3.177686888E-1,-1.764104670E0,1.022719054E1
8.793376292E0,1.004564864E1,-3.302662352E-1,-1.582171771E0,1.017484152E1
8.803402292E0,9.548382123E0,-3.715659599E-1,-1.256689728E0,9.637890407E0
8.813428292E0,9.140206710E0,-3.055442074E-1,-9.575844741E-1,9.195308803E0
8.823455292E0,9.086026409E0,-2.479160782E-1,-7.911658461E-1,9.123775627E0
8.833481292E0,8.957523320E0,-2.738668983E-1,-6.477073337E-1,8.985084969E0
8.843507292E0,8.780118797E0,-3.054488978E-1,-5.633862448E-1,8.803475972E0
8.853533292E0,8.206466011E0,-4.334982793E-1,-3.484383582E-1,8.225291146E0
8.863560292E0,5.056638182E0,-4.289181188E-1,1.925622600E-1,5.078448649E0
8.873586292E0,-1.048856002E0,-3.460037237E-1,1.470804532E0,1.839316031E0
8.883612292E0,-2.058784166E0,-1.006551397E0,2.512825432E0,3.400886591E0
8.893638292E0,-6.957368016E0,-1.681611859E0,5.236887376E0,8.868922006E0
8.903664292E0,-1.620795320E1,-2.483701327E0,1.001900755E1,1.921580161E1
8.913691292E0,-2.549997409E1,-4.070085433E0,1.483257698E1,2.977951669E1
8.923717292E0,-2.918943385E1,-4.003095637E0,1.600622894E1,3.352979553E1
8.933743292E0,-3.156812562E1,-2.059873502E0,8.699807290E0,3.280969797E1
8.943769292E0,-4.430458689E1,-3.244705335E0,-1.436345253E1,4.668761400E1
8.953796292E0,-2.227061068E1,-5.414732559E-1,-8.153097889E0,2.372227431E1
8.963822292E0,-4.454552141E0,1.802192263E0,3.141530045E0,5.741092470E0
8.973848292E0,-8.626259843E0,6.182073998E-1,7.667220727E-1,8.682303957E0
8.983874292E0,-1.271343493E1,-4.958485651E-1,-2.690102777E0,1.300438182E1
8.993901292E0,-1.377896719E1,1.447504730E-1,-3.602470733E0,1.424284680E1
9.003927292E0,-1.297565683E1,1.124769526E0,-3.042353082E0,1.337492762E1
9.013953292E0,-1.281195818E1,1.382617703E0,-2.327275737E0,1.309481258E1
9.023979292E0,-1.293767682E1,1.309347998E0,-1.923586746E0,1.314526758E1
9.034006292E0,-1.319333814E1,1.249759900E0,-1.647649330E0,1.335443070E1
9.044032292E0,-1.206739829E1,1.115109633E0,-1.682101271E0,1.223499227E1
9.054058292E0,-1.144604509E1,2.745668283E-1,-1.878222731E0,1.160237285E1
9.064084292E0,-1.056954747E1,-5.324471650E-1,-1.459420588E0,1.068310545E1
9.074111292E0,-9.177948732E0,-8.867738155E-1,-7.133462032E-1,9.248241646E0
9.084137292E0,-8.311860904E0,-1.017812549E0,2.494095484E-1,8.377659530E0
9.094163292E0,-7.168296965E0,-8.722440693E-1,1.023269756E0,7.293310092E0
9.104189292E0,-6.216967843E0,-6.606242716E-1,1.148066880E0,6.356506206E0
9.114216292E0,-5.239727953E0,-5.997548298E-1,1.142987915E0,5.396376215E0
9.124242292E0,-3.465100926E0,-4.954679114E-1,1.067058384E0,3.659375148E0
9.134268292E0,-1.229468307E0,-3.029527214E-1,7.887543082E-1,1.491813001E0
9.144294292E0,1.046077405E0,1.405290574E-2,6.037413883E-1,1.207882066E0
9.154320292E0,2.973896804E0,2.903634103E-1,4.043642350E-1,3.015275037E0
9.164347292E0,4.652766320E0,5.490267257E-1,1.622030047E-1,4.687853942E0
9.174373292E0,6.099549905E0,7.763949754E-1,-2.037645020E-2,6.148797720E0
9.184399292E0,7.379992484E0,9.552323585E-1,-2.020494405E-1,7.444298617E0
9.194425292E0,8.382704599E0,1.123795964E0,-2.215369678E-1,8.460598820E0
9.204452292E0,9.243083206E0,1.207699635E0,-1.654762761E-1,9.323116859E0
9.214478292E0,9.874216461E0,1.214462306E0,-6.018889904E-2,9.948803552E0
9.224504292E0,1.024519891E1,1.159989425E0,1.246135942E-1,1.031141138E1
9.234530292E0,1.043116726E1,1.066922510E0,2.759523991E-1,1.048921941E1
9.244557292E0,1.034954364E1,9.475321602E-1,4.826454791E-1,1.040402890E1
9.254583292E0,1.032507655E1,8.810947073E-1,6.584292269E-1,1.038349954E1
9.264609292E0,1.036250808E1,8.561422261E-1,7.175643846E-1,1.042254537E1
9.274635292E0,1.043780853E1,8.575799102E-1,6.584865296E-1,1.049365974E1
9.284661292E0,1.047606569E1,8.739953835E-1,5.808215090E-1,1.052849343E1
9.294688292E0,1.048701051E1,8.900166813E-1,5.905021226E-1,1.054126235E1
9.304714292E0,1.056268167E1,9.043832901E-1,6.396047008E-1,1.062060485E1
9.314740292E0,1.062838800E1,9.284399778E-1,6.450391030E-1,1.068834448E1
9.324766292E0,1.059255158E1,9.717217259E-1,6.745921004E-1,1.065839888E1
9.334793292E0,1.062231157E1,1.037254542E0,7.218598223E-1,1.069721841E1
9.344819292E0,1.062923350E1,1.099602013E0,6.246896231E-1,1.070420322E1
9.354845292E0,1.061502360E1,1.177797705E0,4.816643894E-1,1.069102119E1
9.364871292E0,1.056780149E1,1.223762741E0,3.684148953E-1,1.064479934E1
9.374898292E0,1.055488967E1,1.294299019E0,2.616500366E-1,1.063716910E1
9.384924292E0,1.056439022E1,1.376167201E0,1.395267715E-1,1.065455981E1
9.394950292E0,1.060638142E1,1.483649257E0,3.164038025E-2,1.070969388E1
9.404976292E0,1.054365366E1,1.571139098E0,-6.261439718E-2,1.066025474E1
9.415003292E0,1.040674812E1,1.618242806E0,-1.441608361E-1,1.053280108E1
9.425029292E0,1.026719730E1,1.673049781E0,-2.546550125E-1,1.040573328E1
9.435055292E0,1.009312569E1,1.719296579E0,-3.213419223E-1,1.024355542E1
9.445081292E0,9.896431203E0,1.743665874E0,-3.165788535E-1,1.005385217E1
9.455107292E0,9.519219135E0,1.765593517E0,-2.355890695E-1,9.684438839E0
9.465134292E0,9.291025697E0,1.916956588E0,-1.777308706E-1,9.488386023E0
9.475160292E0,9.399412610E0,2.199934198E0,-2.537773454E-1,9.656762958E0
9.485186292E0,9.349596671E0,2.393925371E0,-3.651885114E-1,9.658115719E0
9.495212292E0,9.395033045E0,2.569657736E0,-4.375236853E-1,9.749934040E0
9.505239292E0,9.271587213E0,2.587209616E0,-5.499534363E-1,9.641495311E0
9.515265250E0,1.101881477E0,6.506461443E-1,-3.084153072E0,3.339084211E0
9.525291250E0,-3.612582674E1,-1.105079319E1,-1.434335682E1,4.040949483E1
9.535317250E0,-2.722569325E1,-1.362355171E1,-1.372113823E1,3.339325035E1
9.545344250E0,5.248756639E0,1.612857410E-1,2.021634174E0,5.626940916E0
9.555370250E0,3.505075416E0,1.125721277E1,7.478860130E0,1.396222554E1
9.565396250E0,-2.312700792E1,8.336052589E0,8.914327307E-1,2.459965285E1
9.575422250E0,-3.938489868E1,2.853251204E0,-7.109661087E0,4.012304285E1
9.585449250E0,-3.304590880E1,1.522371127E0,-4.956947833E0,3.345027704E1
9.595475250E0,-2.037743428E1,9.860130519E-1,8.411802976E-1,2.041860999E1
9.605501250E0,-1.842296503E1,-1.137820511E0,1.215928495E-1,1.845846854E1
9.615527250E0,-1.887736853E1,-2.401771896E0,-1.785117370E0,1.911308962E1
9.625554250E0,-1.647053762E1,-2.655186714E0,-1.744395168E0,1.677413308E1
9.635580250E0,-1.427342295E1,-2.577563464E0,-1.257215538E0,1.455867532E1
9.645606250E0,-1.370870237E1,-2.972421552E0,-1.229607471E0,1.408104205E1
9.655632250E0,-1.410578328E1,-3.437459091E0,-1.230780423E0,1.457065775E1
9.665658250E0,-1.447930809E1,-3.705554221E0,-1.240292381E0,1.499732710E1
9.675685250E0,-1.437257419E1,-3.753606055E0,-1.029977682E0,1.489030897E1
9.685711250E0,-1.330997723E1,-3.508423824E0,-4.985641582E-1,1.377363778E1
9.695737250E0,-1.170362781E1,-3.014826729E0,-2.433577533E-1,1.208814738E1
9.705763250E0,-1.024183793E1,-2.656641501E0,-4.667094044E-1,1.059107199E1
9.715790250E0,-8.728741652E0,-2.602829868E0,-9.500940447E-1,9.157965541E0
9.725816250E0,-7.148136351E0,-2.335772326E0,-6.640437233E-1,7.549346973E0
9.735842250E0,-5.110385789E0,-1.718296121E0,-8.263635993E-2,5.392162204E0
9.745868250E0,-3.128662078E0,-1.148544816E0,4.029246870E-1,3.357086519E0
9.755895250E0,-9.755810344E-1,-7.296534298E-1,7.962236877E-1,1.455377835E0
9.765921250E0,1.093277299E0,-1.905952567E-1,1.146377034E0,1.595544456E0
9.775947250E0,2.908663512E0,4.522461703E-1,1.315469155E0,3.224175728E0
9.785973250E0,4.345223826E0,9.990850872E-1,1.116877831E0,4.596363476E0
9.796000250E0,5.483577896E0,1.490729066E0,8.368044607E-1,5.743878602E0
9.806026250E0,6.454089394E0,1.940101914E0,4.701723448E-1,6.755762531E0
9.816052250E0,7.265864190E0,2.341560485E0,2.417838290E-2,7.633889738E0
9.826078250E0,8.107930487E0,2.721933558E0,-2.423542249E-1,8.556061866E0
9.836104250E0,8.878216365E0,2.938143712E0,-2.198961660E-1,9.354344906E0
9.846131250E0,9.351464857E0,2.933123877E0,-1.589881325E-1,9.801958369E0
9.856157250E0,9.629985280E0,2.697552130E0,-3.461083889E-2,1.000073007E1
9.866183250E0,9.799641073E0,2.346790381E0,2.020563110E-1,1.007875077E1
9.876209250E0,9.902629251E0,1.939623904E0,4.306894597E-1,1.009998517E1
9.886236250E0,9.962862589E0,1.656601856E0,5.104315940E-1,1.011254177E1
9.896262250E0,1.005580759E1,1.413224953E0,5.315282750E-1,1.016852956E1
9.906288250E0,1.010719526E1,1.189573559E0,5.219633266E-1,1.019033498E1
9.916314250E0,1.014523725E1,1.017847413E0,4.779771717E-1,1.020736569E1
9.926341250E0,1.020861639E1,8.782275251E-1,3.571713209E-1,1.025254619E1
9.936367250E0,1.023234322E1,7.451013350E-1,2.827608240E-1,1.026333169E1
9.946393250E0,1.019122443E1,6.062969139E-1,1.593249321E-1,1.021048656E1
9.956419250E0,1.017482182E1,5.075781162E-1,5.008841415E-2,1.018759753E1
9.966445250E0,1.014267383E1,4.080654860E-1,-5.507726312E-2,1.015102868E1
9.976472250E0,1.016065752E1,3.208223972E-1,-1.722642173E-1,1.016718069E1
9.986498250E0,1.016324433E1,2.105550197E-1,-2.642146254E-1,1.016885825E1
9.996524250E0,1.016047743E1,8.056644559E-2,-3.223189920E-1,1.016590783E1
1.000655025E1,1.019451056E1,-7.231836319E-2,-3.870716429E-1,1.020211253E1
1.001657725E1,1.020373279E1,-2.121059571E-1,-4.244312213E-1,1.021475862E1
1.002660325E1,1.022998913E1,-3.340792045E-1,-4.364753526E-1,1.024474486E1
1.003662925E1,1.025242139E1,-4.335149074E-1,-4.772520804E-1,1.027267487E1
1.004665525E1,1.031893346E1,-4.797430674E-1,-4.957258467E-1,1.034196719E1
1.005668225E1,1.037806986E1,-5.416132602E-1,-5.345629799E-1,1.040593276E1
1.006670825E1,1.038173373E1,-5.568413832E-1,-5.636867186E-1,1.041192635E1
1.007673425E1,1.039050923E1,-4.976612750E-1,-6.182044762E-1,1.042077375E1
1.008676025E1,1.015490971E1,-3.026317824E-1,-6.911660331E-1,1.018290173E1
1.009678625E1,9.806151947E0,-2.028084822E-1,-7.501511367E-1,9.836893515E0
1.010681325E1,9.761171072E0,-1.107822248E-1,-7.681036967E-1,9.791972053E0
1.011683925E1,9.681867625E0,1.713789672E-2,-7.487435657E-1,9.710791489E0
1.012686525E1,9.675516379E0,5.501816969E-1,-4.076082702E-1,9.699714511E0
1.013689125E1,9.262281370E0,2.685523531E0,-3.293970831E-1,9.649372790E0
1.014691825E1,1.479303460E0,3.833957908E0,-2.942294358E0,5.054173330E0
1.015694425E1,-2.569325498E1,-7.837265798E-1,-1.106889851E1,2.798710583E1
1.016697025E1,-4.067312449E1,-3.443987508E0,-1.415254697E1,4.320253108E1
1.017699625E1,-1.903382949E1,3.581798194E0,-4.351092092E0,1.985064095E1
1.018702325E1,-3.253473819E0,7.263733465E0,1.682852054E0,8.135041904E0
1.019704925E1,-7.998765895E0,3.967781086E0,1.619315039E0,9.074454462E0
1.020707525E1,-2.015553713E1,-6.323512298E-1,-2.112374482E0,2.027579027E1
1.021710125E1,-1.947605675E1,-2.195550832E0,-3.281151030E0,1.987217105E1
1.022712825E1,-1.285677592E1,-1.150661581E0,1.742659714E0,1.302526667E1
1.023715425E1,-1.506975759E1,-2.221201690E0,2.452828614E0,1.542879448E1
1.024718025E1,-1.595687961E1,-2.862880399E0,1.472949876E0,1.627844195E1
1.025720625E1,-1.491434328E1,-2.566492054E0,1.328591477E0,1.519176330E1
1.026723325E1,-1.353473718E1,-2.128500811E0,1.264226496E0,1.375928395E1
1.027725925E1,-1.344748737E1,-2.057552158E0,7.015139238E-1,1.362206149E1
1.028728525E1,-1.375002114E1,-2.083692720E0,1.618182579E-1,1.390794887E1
1.029731125E1,-1.390944547E1,-2.118073179E0,-5.131267950E-2,1.406988061E1
1.030733725E1,-1.388516315E1,-2.172624777E0,-1.624262953E-1,1.405505022E1
1.031736425E1,-1.389532328E1,-2.113996500E0,-7.987436914E-1,1.407788982E1
1.032739025E1,-1.309088791E1,-1.878676768E0,-9.399692253E-1,1.325836772E1
1.033741625E1,-1.194342914E1,-1.702100503E0,-1.025365398E0,1.210760174E1
1.034744225E1,-1.076316398E1,-1.697916820E0,-9.046425410E-1,1.093375500E1
1.035746925E1,-9.360503483E0,-1.574208448E0,-5.474770673E-1,9.507727848E0
1.036749525E1,-7.919929640E0,-1.411919562E0,-8.912099518E-2,8.045293339E0
1.037752125E1,-6.469911960E0,-1.259286768E0,3.020847388E-1,6.598243639E0
1.038754725E1,-4.813236721E0,-9.389667933E-1,5.732377068E-1,4.937358387E0
1.039757425E1,-3.135029111E0,-5.596985520E-1,6.121017007E-1,3.242890453E0
1.040760025E1,-1.346773978E0,-3.067463949E-2,5.162401084E-1,1.442652048E0
1.041762625E1,3.370183074E-1,4.192880470E-1,2.704945350E-1,6.021221631E-1
1.042765225E1,1.807935106E0,7.123219172E-1,2.392684299E-2,1.943348748E0
1.043767825E1,3.181741347E0,1.038872832E0,-1.817805425E-1,3.351981343E0
1.044770525E1,4.447252477E0,1.357194594E0,-2.800874770E-1,4.658162809E0
1.045773125E1,5.532293973E0,1.652034157E0,-2.238291128E-1,5.778026733E0
1.046775725E1,6.465273364E0,1.941090532E0,-1.308957696E-1,6.751646157E0
1.047778325E1,7.313171673E0,2.192700753E0,-7.505244814E-2,7.635184961E0
1.048781025E1,8.121642208E0,2.365263782E0,2.068167485E-2,8.459076347E0
1.049783625E1,8.840587778E0,2.388726904E0,2.032644919E-1,9.159875815E0
1.050786225E1,9.261194372E0,2.187322046E0,3.347157105E-1,9.521876577E0
1.051788892E1,9.502728817E0,1.860425415E0,3.539611630E-1,9.689598867E0
1.052791592E1,9.642687771E0,1.565530157E0,3.842672817E-1,9.776501085E0
1.053794192E1,9.742233694E0,1.339728376E0,4.157767940E-1,9.842705919E0
1.054796792E1,9.816799142E0,1.189495645E0,3.963687158E-1,9.896542500E0
1.055799392E1,9.894985771E0,1.092259080E0,3.679243505E-1,9.961884442E0
1.056802092E1,9.921092420E0,1.052273992E0,3.130230886E-1,9.981650104E0
1.057804692E1,9.934884832E0,1.018641977E0,2.132964867E-1,9.989247394E0
1.058807292E1,9.924149344E0,9.697618854E-1,1.070981866E-1,9.971993198E0
1.059809892E1,9.910719459E0,9.361452194E-1,-4.947570361E-2,9.954957354E0
1.060812492E1,9.909438919E0,9.014781741E-1,-1.969839611E-1,9.952308539E0
1.061815192E1,9.887066302E0,8.436132509E-1,-3.252070049E-1,9.928319242E0
1.062817792E1,9.846644500E0,8.080010033E-1,-3.770805055E-1,9.886933966E0
1.063820392E1,9.822751608E0,7.418886555E-1,-3.998437891E-1,9.858839840E0
1.064822992E1,9.829465381E0,6.935783020E-1,-3.992256653E-1,9.861988728E0
1.065825692E1,9.849302645E0,6.433787861E-1,-3.929574502E-1,9.878112897E0
1.066828292E1,9.898571284E0,5.415474790E-1,-4.142606109E-1,9.922025952E0
1.067830892E1,9.965102073E0,4.357833347E-1,-4.761381128E-1,9.985983874E0
1.068833492E1,1.006675124E1,3.447462800E-1,-5.530109453E-1,1.008782195E1
1.069836192E1,1.018261382E1,2.250704402E-1,-6.028076611E-1,1.020292399E1
1.070838792E1,1.022384955E1,1.034071135E-1,-6.263731096E-1,1.024354118E1
1.071841392E1,1.029337295E1,6.429941855E-2,-6.811762114E-1,1.031608754E1
1.072843992E1,1.042888100E1,1.315313619E-1,-7.931695408E-1,1.045982683E1
1.073846592E1,1.038661031E1,1.253398184E-1,-8.694428875E-1,1.042369007E1
1.074849292E1,1.019630449E1,1.835899634E-1,-9.181164262E-1,1.023920252E1
1.075851892E1,9.965451736E0,2.815195332E-1,-9.882062694E-1,1.001828494E1
1.076854492E1,9.964103369E0,4.317194467E-1,-9.645555977E-1,1.001998529E1
1.077857092E1,9.906336386E0,6.144981455E-1,-8.547051267E-1,9.962109687E0
1.078859792E1,9.893640912E0,1.070614442E0,-6.752960321E-1,9.974285463E0
1.079862392E1,9.783193440E0,2.444612691E0,-3.484268099E-1,1.009001518E1
1.080864992E1,3.684254569E0,5.144387348E0,-2.046417305E0,6.650283956E0
1.081867592E1,-4.169654627E1,-3.199466889E0,-1.586832703E1,4.472854080E1
1.082870292E1,-4.646180717E1,-5.150179015E0,-1.601290178E1,4.941292233E1
1.083872892E1,-8.491844049E0,6.397010044E0,3.130307265E-1,1.063631238E1
1.084875492E1,-3.901654047E0,6.281704706E0,3.441208034E0,8.156263302E0
1.085878092E1,-1.206913492E1,2.464133620E0,4.015325089E0,1.295603364E1
1.086880792E1,-2.062904231E1,-1.323755829E0,3.571227306E0,2.097768769E1
1.087883392E1,-2.200726145E1,-3.210289501E0,1.550961088E0,2.229419196E1
1.088885992E1,-2.235855281E1,-4.041139376E0,3.199000354E-1,2.272307257E1
1.089888592E1,-1.670171782E1,-2.215614091E0,2.191460413E0,1.698996241E1
1.090891192E1,-1.431234670E1,-2.016157087E0,2.152286407E0,1.461302481E1
1.091893892E1,-1.502540646E1,-2.780674394E0,6.512546933E-1,1.529441473E1
1.092896492E1,-1.517039987E1,-3.000164251E0,-2.119240721E-1,1.546566938E1
1.093899092E1,-1.484299789E1,-2.921061949E0,-2.477547133E-1,1.512972477E1
1.094901692E1,-1.463132985E1,-2.858040074E0,-3.701333920E-1,1.491245134E1
1.095904392E1,-1.472528876E1,-2.795510242E0,2.852248406E-1,1.499100930E1
1.096906992E1,-1.510163076E1,-2.757830492E0,2.932063266E-1,1.535418023E1
1.097909592E1,-1.322955930E1,-2.456872840E0,6.114737463E-1,1.346964601E1
1.098912192E1,-1.129824736E1,-2.124804493E0,8.345298207E-1,1.152656183E1
1.099914892E1,-9.835447083E0,-1.735139318E0,8.867875564E-1,1.002662056E1
1.100917492E1,-8.295392806E0,-1.372644692E0,9.921122825E-1,8.466521248E0
1.101920092E1,-6.337461416E0,-1.053414491E0,1.089716345E0,6.516178404E0
1.102922692E1,-4.520611060E0,-8.071655092E-1,9.074188721E-1,4.680902640E0
1.103925392E1,-2.860730962E0,-6.782217595E-1,7.774726903E-1,3.041090294E0
1.104927992E1,-1.179624302E0,-5.377367755E-1,6.857825017E-1,1.466619233E0
1.105930592E1,5.065021920E-1,-3.484418665E-1,5.402441347E-1,8.184252745E-1
1.106933192E1,2.085114178E0,-1.622969987E-1,4.322694504E-1,2.135625981E0
1.107935792E1,3.447986126E0,7.857766137E-2,3.745270264E-1,3.469157429E0
1.108938492E1,4.560062224E0,3.712657419E-1,3.031091344E-1,4.585180572E0
1.109941092E1,5.621873317E0,6.265914300E-1,1.362752080E-1,5.658325489E0
1.110943692E1,6.528264833E0,8.525735242E-1,-4.572406610E-2,6.583860117E0
1.111946292E1,7.289868765E0,1.010261309E0,-1.833862245E-1,7.361823485E0
1.112948992E1,7.983855495E0,1.167750800E0,-2.957018816E-1,8.074220092E0
1.113951592E1,8.629053057E0,1.378292664E0,-4.847914803E-1,8.751872378E0
1.114954192E1,9.069078255E0,1.530241041E0,-6.914788592E-1,9.223229426E0
1.115956792E1,9.344136541E0,1.545624627E0,-8.506944484E-1,9.509233630E0
1.116959492E1,9.557004427E0,1.446830802E0,-8.521603453E-1,9.703392718E0
1.117962092E1,9.684227561E0,1.287767971E0,-7.202372199E-1,9.795986497E0
1.118964692E1,9.803596714E0,1.193212647E0,-5.891952699E-1,9.893503728E0
1.119967292E1,9.913411517E0,1.112632314E0,-5.878948492E-1,9.992962470E0
1.120969892E1,9.956659863E0,1.097634352E0,-5.537003320E-1,1.003227097E1
1.121972592E1,9.956007314E0,1.101996448E0,-4.532469213E-1,1.002705892E1
1.122975192E1,9.904582222E0,1.116054324E0,-3.461048806E-1,9.973270017E0
1.123977792E1,9.848645418E0,1.160167254E0,-2.568646936E-1,9.920069762E0
1.124980392E1,9.768902845E0,1.202122707E0,-2.105354498E-1,9.844840627E0
1.125983092E1,9.690488175E0,1.262616465E0,-1.930680442E-1,9.774304920E0
1.126985692E1,9.620372458E0,1.405387638E0,-2.364146598E-1,9.725357193E0
1.127988292E1,9.605740385E0,1.590414006E0,-3.571082806E-1,9.743058626E0
1.128990892E1,9.616344311E0,1.607086172E0,-3.996016778E-1,9.757893490E0
1.129993592E1,9.630230863E0,1.516912751E0,-4.701401120E-1,9.760297254E0
1.130996192E1,9.692766250E0,1.391663053E0,-5.048703072E-1,9.805168925E0
1.131998792E1,9.880361885E0,1.200588909E0,-5.722868764E-1,9.969477267E0
1.133001392E1,1.011480600E1,1.006550227E0,-6.206895429E-1,1.018369772E1
1.134003992E1,1.021026998E1,7.990667501E-1,-7.255563589E-1,1.026715894E1
1.135006692E1,1.028575519E1,6.199960631E-1,-8.158374417E-1,1.033666995E1
1.136009292E1,1.032930993E1,5.016226540E-1,-8.400631139E-1,1.037554697E1
1.137011892E1,1.041907639E1,4.158325983E-1,-9.239934627E-1,1.046822972E1
1.138014492E1,1.052006248E1,3.582884315E-1,-9.739730501E-1,1.057112618E1
1.139017192E1,1.059300766E1,3.864144889E-1,-1.050227686E0,1.065195314E1
1.140019792E1,1.052749897E1,5.964876249E-1,-1.169481137E0,1.060903945E1
1.141022392E1,1.016948682E1,7.506947815E-1,-1.278857399E0,1.027703659E1
1.142024992E1,9.955603856E0,8.916041272E-1,-1.228397682E0,1.007064878E1
1.143027692E1,9.947634101E0,1.174921679E0,-9.745881772E-1,1.006407906E1
1.144030292E1,9.934439274E0,1.700033804E0,-5.398296402E-1,1.009329553E1
1.145032892E1,6.288108577E0,2.372699540E0,-1.166306099E0,6.821310907E0
1.146035492E1,-2.112853954E1,-1.054866282E0,-8.095438496E0,2.265091721E1
1.147038092E1,-5.572729574E1,-1.151163916E1,-1.656511166E1,5.926594512E1
1.148040792E1,-3.051595425E1,-2.571270106E0,-7.093378930E0,3.143486787E1
1.149043392E1,-6.782681864E0,7.659535001E0,1.804731417E0,1.038895111E1
1.150045992E1,-9.352270603E-1,6.981128177E0,1.802758566E0,7.270539095E0
1.151048592E1,-7.151433595E0,4.047724803E0,2.726447901E0,8.657978789E0
1.152051225E1,-1.223493623E1,2.839790621E0,2.903769978E0,1.289146831E1
1.153053825E1,-1.915981243E1,1.117165734E0,1.726798557E0,1.926988077E1
1.154056425E1,-1.968328558E1,5.232790232E-1,1.398932312E0,1.973987244E1
1.155059025E1,-1.229516021E1,1.723903893E0,3.152875983E0,1.280950569E1
1.156061725E1,-5.337649519E0,3.077792763E0,5.262075427E0,8.102638365E0
1.157064325E1,-9.860310613E0,1.703702932E0,3.943565719E0,1.075546557E1
1.158066925E1,-1.892656349E1,-6.000812871E-1,1.307479520E0,1.898115923E1
1.159069525E1,-2.582134642E1,-2.872630923E0,-1.060287217E-1,2.598086183E1
1.160072125E1,-2.321469511E1,-2.875056933E0,3.159870422E-1,2.339418451E1
1.161074825E1,-2.060258951E1,-2.522199980E0,1.003107387E0,2.078062587E1
1.162077425E1,-1.732547656E1,-2.248219335E0,1.496987194E0,1.753475403E1
1.163080025E1,-1.404659659E1,-2.072248257E0,1.589595396E0,1.428733363E1
1.164082625E1,-1.162757424E1,-2.087605092E0,1.482809451E0,1.190618754E1
1.165085325E1,-1.018451884E1,-1.921680408E0,1.483422239E0,1.046985297E1
1.166087925E1,-8.317462537E0,-1.444115501E0,1.812478977E0,8.634276616E0
1.167090525E1,-6.641748764E0,-1.015458460E0,1.682675468E0,6.926426153E0
1.168093125E1,-4.875708373E0,-7.235660398E-1,1.224817432E0,5.079001644E0
1.169095825E1,-2.778186404E0,-4.935359913E-1,9.819123995E-1,2.987649482E0
1.170098425E1,-6.566399789E-1,-3.132541267E-1,7.087877870E-1,1.015718631E0
1.171101025E1,1.384513078E0,-1.639457674E-1,5.539325031E-1,1.500198619E0
1.172103625E1,3.160007831E0,-4.907129556E-2,4.410940683E-1,3.191022009E0
1.173106325E1,4.523192021E0,8.787100665E-2,3.457809814E-1,4.537240555E0
1.174108925E1,5.790591801E0,1.929519770E-1,2.311883819E-1,5.798416330E0
1.175111525E1,6.850310760E0,3.208843046E-1,9.523188371E-2,6.858483313E0
1.176114125E1,7.692809166E0,4.407269362E-1,-5.583275992E-2,7.705625893E0
1.177116725E1,8.368720983E0,5.555161849E-1,-1.928212917E-1,8.389354515E0
1.178119425E1,8.973368690E0,6.266355765E-1,-3.327381456E-1,9.001373921E0
1.179122025E1,9.378765507E0,6.693769687E-1,-4.435405433E-1,9.413077933E0
1.180124625E1,9.683928183E0,7.436275443E-1,-4.701149690E-1,9.723808671E0
1.181127225E1,9.884152050E0,7.771630803E-1,-4.898189163E-1,9.926750061E0
1.182129925E1,1.000651907E1,7.920535997E-1,-5.214014822E-1,1.005134978E1
1.183132525E1,1.008390931E1,8.138094080E-1,-5.516649163E-1,1.013172477E1
1.184135125E1,1.013650151E1,8.237406845E-1,-5.657397491E-1,1.018564053E1
1.185137725E1,1.015842272E1,8.390403628E-1,-5.745719683E-1,1.020919555E1
1.186140425E1,1.017927623E1,8.521197072E-1,-5.756022477E-1,1.023108452E1
1.187143025E1,1.018330379E1,8.807188775E-1,-5.572466683E-1,1.023649675E1
1.188145625E1,1.020116235E1,9.043588049E-1,-5.603667426E-1,1.025649010E1
1.189148225E1,1.022097623E1,9.238141724E-1,-5.353096694E-1,1.027659205E1
1.190150825E1,1.025778211E1,9.687456393E-1,-4.742144519E-1,1.031433184E1
1.191153525E1,1.030239988E1,1.009957692E0,-4.296276784E-1,1.036069678E1
1.192156125E1,1.029180121E1,1.044405248E0,-3.509709334E-1,1.035061038E1
1.193158725E1,1.027973022E1,1.084180494E0,-2.298645723E-1,1.033930068E1
1.194161325E1,1.027666628E1,1.107312371E0,-6.687694430E-2,1.033636701E1
1.195164025E1,1.027702413E1,1.180370407E0,9.714447141E-2,1.034504405E1
1.196166625E1,1.023076213E1,1.249831821E0,3.153894567E-1,1.031164603E1
1.197169225E1,1.019446145E1,1.334662787E0,5.495645964E-1,1.029613472E1
1.198171825E1,1.011860435E1,1.436034941E0,7.964632773E-1,1.025098552E1
1.199174525E1,9.995604658E0,1.563125635E0,8.941024232E-1,1.015651975E1
1.200177125E1,9.870979443E0,1.660525045E0,8.295936012E-1,1.004399344E1
1.201179725E1,9.776963232E0,1.711951892E0,6.248656243E-1,9.945363058E0
1.202182325E1,9.698783619E0,1.726785108E0,3.446231961E-1,9.857330047E0
1.203184925E1,9.620338544E0,1.761188371E0,1.120004922E-1,9.780861020E0
1.204187625E1,9.492627168E0,1.840303538E0,-1.189159942E-1,9.670099724E0
1.205190225E1,9.260445929E0,2.060309997E0,-4.724222803E-1,9.498627211E0
1.206192825E1,8.955510709E0,2.573024271E0,-8.838966930E-1,9.359642051E0
1.207195425E1,9.199775804E0,2.900595232E0,-1.113844296E0,9.710302604E0
1.208198125E1,9.393498151E0,2.926864433E0,-1.191912811E0,9.910852591E0
1.209200725E1,9.429412919E0,3.121241961E0,-1.068784336E0,9.989908875E0
1.210203325E1,5.345243883E0,2.626778017E0,-2.194542919E0,6.347252440E0
1.211205925E1,-2.405614218E1,-5.032633023E0,-7.701736110E0,2.575542877E1
1.212208625E1,-5.591389209E1,-2.575324273E1,-1.807612340E1,6.415870227E1
1.213211225E1,-1.746497827E1,-1.038944387E1,-5.394189756E0,2.102530125E1
1.214213825E1,2.564002894E0,1.480966408E1,6.296326253E0,1.629552041E1
1.215216425E1,-1.182123636E1,1.043135671E1,5.086026288E0,1.656570238E1
1.216219025E1,-2.565369038E1,3.531029160E0,1.790302827E0,2.595737238E1
1.217221725E1,-2.814726590E1,-1.666123170E-1,-9.066949868E-1,2.816235844E1
1.218224325E1,-1.808534563E1,8.653791457E-2,4.828771019E-1,1.809199783E1
1.219226925E1,-1.029858866E1,1.775265251E0,4.597767409E0,1.141717830E1
1.220229525E1,-1.203650745E1,7.157383722E-1,3.979747120E0,1.269756592E1
1.221232225E1,-1.357496603E1,-3.379047453E-2,2.681050118E0,1.383722783E1
1.222234825E1,-1.576546165E1,-8.323642313E-1,1.762516859E0,1.588549895E1
1.223237425E1,-1.630562977E1,-1.202550285E0,1.536499754E0,1.642195241E1
1.224240025E1,-1.571206955E1,-1.328117414E0,1.526228535E0,1.584179280E1
1.225242725E1,-1.483981467E1,-1.520594597E0,1.634423075E0,1.500678667E1
1.226245325E1,-1.355730743E1,-1.809969645E0,1.639966235E0,1.377556040E1
1.227247925E1,-1.269706741E1,-2.175453952E0,1.258256489E0,1.294338943E1
1.228250525E1,-1.128915494E1,-2.353398758E0,9.730983067E-1,1.157283134E1
1.229253125E1,-1.010923243E1,-2.481618842E0,8.941971481E-1,1.044770793E1
1.230255825E1,-8.624683433E0,-2.375010359E0,9.597333258E-1,8.997050994E0
1.231258425E1,-7.165276294E0,-2.185763178E0,8.667947567E-1,7.541225244E0
1.232261025E1,-5.890837635E0,-2.024857451E0,7.697298074E-1,6.276503782E0
1.233263625E1,-4.406325476E0,-1.745297978E0,6.715141261E-1,4.786721263E0
1.234266325E1,-2.778119745E0,-1.402387870E0,5.964464021E-1,3.168657345E0
1.235268925E1,-1.053841338E0,-1.015997574E0,5.434127408E-1,1.561451262E0
1.236271525E1,6.723292279E-1,-6.185985786E-1,5.110700369E-1,1.046844485E0
1.237274125E1,2.327070792E0,-2.284863836E-1,4.859118068E-1,2.388215816E0
1.238276825E1,3.806274265E0,1.015969799E-1,4.605033159E-1,3.835375996E0
1.239279425E1,5.096000469E0,3.710575810E-1,3.975597936E-1,5.124934955E0
1.240282025E1,6.203168414E0,5.052443098E-1,3.051919309E-1,6.231188674E0
1.241284625E1,7.120576669E0,6.877193919E-1,2.506806600E-1,7.158101065E0
1.242287225E1,8.006391833E0,8.105937318E-1,1.548225760E-1,8.048810000E0
1.243289925E1,8.672223051E0,9.181492437E-1,7.334454040E-2,8.720999375E0
1.244292525E1,9.217561864E0,9.917776756E-1,-6.560566826E-3,9.270766566E0
1.245295125E1,9.610945576E0,1.007181142E0,-1.276786315E-1,9.664418791E0
1.246297725E1,9.891479781E0,1.014238877E0,-2.022972894E-1,9.945399788E0
1.247300425E1,1.006081982E1,9.949845810E-1,-2.642462003E-1,1.011335335E1
1.248303025E1,1.012933048E1,9.699530894E-1,-3.357202256E-1,1.018120096E1
1.249305625E1,1.017688004E1,9.494025383E-1,-4.126385933E-1,1.022939505E1
1.250308225E1,1.018071347E1,9.211440414E-1,-4.321127450E-1,1.023142974E1
1.251310825E1,1.018708811E1,9.014862871E-1,-4.158469605E-1,1.023534906E1
1.252313517E1,1.020259375E1,8.950438249E-1,-4.485919529E-1,1.025159780E1
1.253316117E1,1.022827706E1,9.164221955E-1,-4.708254057E-1,1.028003686E1
1.254318717E1,1.020757558E1,9.424353616E-1,-4.611757457E-1,1.026135794E1
1.255321317E1,1.019928891E1,9.417541610E-1,-4.724246192E-1,1.025356426E1
1.256324017E1,1.018127013E1,9.511827231E-1,-4.168175983E-1,1.023409727E1
1.257326617E1,1.019028887E1,9.564058216E-1,-3.513872917E-1,1.024110211E1
1.258329217E1,1.018910306E1,9.956738947E-1,-2.942762574E-1,1.024186439E1
1.259331817E1,1.019120104E1,1.006833890E0,-2.551450457E-1,1.024399298E1
1.260334517E1,1.017646372E1,1.042330363E0,-2.138204338E-1,1.023193948E1
1.261337117E1,1.010125917E1,1.087379067E0,-1.465277525E-1,1.016067421E1
1.262339717E1,9.986999896E0,1.146407513E0,-1.716099687E-1,1.005404730E1
1.263342317E1,9.915640476E0,1.159228629E0,-2.389061219E-1,9.986030903E0
1.264344917E1,9.824328017E0,1.191839867E0,-3.610245629E-1,9.902941078E0
1.265347617E1,9.727536133E0,1.235479245E0,-5.040978169E-1,9.818629374E0
1.266350217E1,9.590925879E0,1.340805433E0,-6.623445956E-1,9.706818160E0
1.267352817E1,9.469128962E0,1.456861262E0,-7.936589527E-1,9.613362709E0
1.268355417E1,9.486830823E0,1.672253683E0,-8.731115768E-1,9.672575421E0
1.269358117E1,9.632851585E0,1.867792030E0,-9.663767861E-1,9.859734318E0
1.270360717E1,9.618483222E0,1.999966439E0,-1.037560351E0,9.878846933E0
1.271363317E1,9.622174569E0,2.128191200E0,-1.071361350E0,9.912782474E0
1.272365917E1,9.631855220E0,2.418769167E0,-1.053319767E0,9.986619137E0
1.273368617E1,9.606492337E0,3.073594170E0,-1.087858538E0,1.014470859E1
1.274371217E1,1.511523373E0,2.229700326E0,-2.542317910E0,3.704004158E0
1.275373817E1,-3.484984500E1,-6.331588472E0,-7.137078096E0,3.613223758E1
1.276376417E1,-4.974462583E1,-1.681931000E1,-1.442029448E1,5.445513641E1
1.277379017E1,-2.307704229E1,-1.995854677E0,-6.867444856E0,2.415978302E1
1.278381717E1,-9.651360362E0,8.271004069E0,3.334074179E0,1.314055995E1
1.279384317E1,-8.175314385E0,5.103933386E0,4.110378596E0,1.047764828E1
1.280386917E1,-9.487094532E0,3.156655038E0,3.688138289E0,1.065700698E1
1.281389517E1,-1.486304448E1,3.914009213E-2,1.620462263E0,1.495117123E1
1.282392217E1,-1.713384460E1,-2.533918970E0,-1.993251497E-1,1.732134829E1
1.283394817E1,-1.393534396E1,-2.070112562E0,1.887713932E0,1.421417044E1
1.284397417E1,-1.157523815E1,-1.228890018E0,3.565436808E0,1.217409744E1
1.285400017E1,-1.175965583E1,-1.280763592E0,2.604042288E0,1.211242737E1
1.286402717E1,-1.089400128E1,-2.574247289E-1,2.201682515E0,1.111723604E1
1.287405317E1,-1.140513095E1,9.073628850E-2,2.790437490E0,1.174188173E1
1.288407917E1,-1.463909612E1,-1.051609675E0,2.417234273E0,1.487454335E1
1.289410517E1,-1.648463643E1,-1.665490209E0,2.022571775E0,1.669155153E1
1.290413117E1,-1.697035177E1,-1.917506373E0,1.969312996E0,1.719150556E1
1.291415817E1,-1.555874854E1,-1.731081935E0,2.158374528E0,1.580284409E1
1.292418417E1,-1.293779494E1,-1.371448644E0,2.059033842E0,1.317220671E1
1.293421017E1,-1.068589770E1,-1.173636169E0,1.926058803E0,1.092133390E1
1.294423617E1,-8.960527035E0,-1.072599206E0,1.823310944E0,9.206844009E0
1.295426317E1,-7.693114391E0,-1.008781013E0,1.616322434E0,7.925537608E0
1.296428917E1,-6.767187327E0,-9.746245761E-1,1.258107385E0,6.951802038E0
1.297431517E1,-5.399902486E0,-8.986499490E-1,8.136329683E-1,5.534303677E0
1.298434117E1,-3.629745070E0,-7.863761725E-1,5.641007380E-1,3.756547138E0
1.299436817E1,-2.018371135E0,-6.758550990E-1,3.749240524E-1,2.161289013E0
1.300439417E1,-3.259074283E-1,-4.869767310E-1,2.349797896E-1,6.313299374E-1
1.301442017E1,1.376804693E0,-2.502073279E-1,1.694406152E-1,1.409576175E0
1.302444617E1,3.025296754E0,1.734898120E-2,8.788365126E-2,3.026622700E0
1.303447217E1,4.519059209E0,2.601369233E-1,3.504894152E-3,4.526541686E0
1.304449917E1,5.863199601E0,4.615461668E-1,-1.150848985E-1,5.882463681E0
1.305452517E1,6.927853611E0,6.040247590E-1,-2.103699918E-1,6.957316803E0
1.306455117E1,7.768973243E0,6.990080264E-1,-3.196216714E-1,7.806901785E0
1.307457717E1,8.432780154E0,8.061342797E-1,-3.984561718E-1,8.480589657E0
1.308460417E1,8.943510468E0,8.598848096E-1,-4.496228170E-1,8.995995890E0
1.309463017E1,9.353214344E0,9.036120424E-1,-4.732689571E-1,9.408672424E0
1.310465617E1,9.642507677E0,9.423292346E-1,-5.204525157E-1,9.702412561E0
1.311468217E1,9.828863118E0,9.423467763E-1,-5.861612228E-1,9.891317031E0
1.312470917E1,9.966445763E0,9.273798046E-1,-6.403110445E-1,1.002995876E1
1.313473517E1,1.006208282E1,9.053567053E-1,-7.102086604E-1,1.012766399E1
1.314476117E1,1.008501560E1,8.879138763E-1,-7.636891220E-1,1.015279035E1
1.315478717E1,1.016030318E1,8.949464688E-1,-8.280815113E-1,1.023320130E1
1.316481317E1,1.023733908E1,9.012832426E-1,-8.362576729E-1,1.031090441E1
1.317484017E1,1.028635980E1,9.101486447E-1,-7.924444860E-1,1.035690768E1
1.318486617E1,1.029514114E1,9.014460875E-1,-7.468987691E-1,1.036148609E1
1.319489217E1,1.029887401E1,9.038185222E-1,-6.880523908E-1,1.036132761E1
1.320491817E1,1.028906004E1,9.180068640E-1,-5.961797690E-1,1.034712150E1
1.321494517E1,1.025840894E1,9.471508487E-1,-5.094105971E-1,1.031462785E1
1.322497117E1,1.020342172E1,9.943100316E-1,-4.007915497E-1,1.025958581E1
1.323499717E1,1.013332764E1,1.023283204E0,-2.701513034E-1,1.018844538E1
1.324502317E1,1.008727497E1,1.050261234E0,-1.812362033E-1,1.014342208E1
1.325504917E1,1.004262563E1,1.088731162E0,-1.236487305E-1,1.010222520E1
1.326507617E1,9.994955617E0,1.119998344E0,-4.352550387E-2,1.005760551E1
1.327510217E1,9.976065602E0,1.159919478E0,4.379857798E-2,1.004336679E1
1.328512817E1,9.919853979E0,1.229872789E0,9.967457076E-2,9.996300569E0
1.329515417E1,9.849058231E0,1.285391078E0,1.150427985E-1,9.933247863E0
1.330518117E1,9.724725376E0,1.352719574E0,1.392362197E-1,9.819344205E0
1.331520717E1,9.489843308E0,1.426947199E0,1.197831180E-1,9.597273171E0
1.332523317E1,9.547814943E0,1.585122568E0,2.460093560E-2,9.678532376E0
1.333525917E1,9.561314410E0,1.726911116E0,-1.283522673E-1,9.716863154E0
1.334528617E1,9.541747288E0,1.975022217E0,-3.010199243E-1,9.748654628E0
1.335531217E1,9.368818808E0,2.206564209E0,-4.771644088E-1,9.636979680E0
1.336533817E1,8.710679018E-1,9.341223751E-1,-1.480941850E0,1.955641241E0
1.337536417E1,-1.537881334E1,-2.506573589E0,-2.076937432E0,1.571955725E1
1.338539017E1,-1.146657701E1,-9.494656152E-1,-1.415702126E0,1.159258753E1
1.339541717E1,-1.174868645E1,2.754895482E0,-5.317621636E-1,1.207906674E1
1.340544317E1,-1.695451868E1,2.045334108E0,-1.128927773E-1,1.707781719E1
1.341546917E1,-1.956827319E1,4.790019328E-1,1.364498936E-1,1.957461052E1
1.342549517E1,-1.796983622E1,4.638245344E-1,5.278398514E-1,1.798356922E1
1.343552217E1,-1.550002612E1,9.439087138E-1,8.899661028E-1,1.555422171E1
1.344554817E1,-1.515726819E1,8.241103747E-1,9.655325943E-1,1.521033169E1
1.345557417E1,-1.560889543E1,3.682201465E-1,9.948781617E-1,1.564490285E1
1.346560017E1,-1.640866472E1,-4.265697308E-2,1.173573165E0,1.645063438E1
1.347562717E1,-1.748376771E1,-2.915006572E-1,1.263862799E0,1.753181266E1
1.348565317E1,-1.733737097E1,-2.438071849E-1,1.488242683E0,1.740283714E1
1.349567917E1,-1.669869247E1,-3.291981681E-1,1.702208092E0,1.678845478E1
1.350570517E1,-1.594421571E1,-7.158964663E-1,1.876172698E0,1.607017568E1
1.351573117E1,-1.555846787E1,-1.254751083E0,2.156933189E0,1.575730572E1
1.352575817E1,-1.513775135E1,-2.046038405E0,2.309421557E0,1.544898758E1
1.353578417E1,-1.380473821E1,-2.766317725E0,2.394528365E0,1.428135417E1
1.354581017E1,-1.192879472E1,-3.157328053E0,2.404764647E0,1.257170462E1
1.355583617E1,-1.013507362E1,-3.195385533E0,2.373072592E0,1.088860319E1
1.356586317E1,-8.568623838E0,-3.081462476E0,1.993531578E0,9.321528502E0
1.357588917E1,-7.018424057E0,-2.852580236E0,1.473232735E0,7.717895111E0
1.358591517E1,-5.354783031E0,-2.457415754E0,8.594997704E-1,5.954102229E0
1.359594117E1,-3.713178406E0,-2.113305067E0,3.669443572E-1,4.288169812E0
1.360596817E1,-2.038701904E0,-1.845664850E0,-7.129276156E-2,2.750975618E0
1.361599417E1,-2.722218025E-1,-1.558627519E0,-4.124989910E-1,1.635108519E0
1.362602017E1,1.389656289E0,-1.270150310E0,-6.673547092E-1,1.997445549E0
1.363604617E1,3.090093259E0,-9.470170205E-1,-8.539415534E-1,3.342863108E0
1.364607217E1,4.595473546E0,-6.037335677E-1,-9.536343876E-1,4.732049226E0
1.365609917E1,5.801170583E0,-3.184734976E-1,-9.873573998E-1,5.893206270E0
1.366612517E1,6.901943429E0,-3.050521642E-2,-1.004069839E0,6.974661992E0
1.367615117E1,7.817313929E0,2.052187045E-1,-9.882982899E-1,7.882210686E0
1.368617717E1,8.522653613E0,4.439975032E-1,-9.348481607E-1,8.585260594E0
1.369620417E1,9.138618606E0,6.428289286E-1,-9.121013955E-1,9.206492709E0
1.370623017E1,9.567618878E0,7.866669984E-1,-8.595739570E-1,9.638311229E0
1.371625617E1,9.909928916E0,8.962361453E-1,-8.319933716E-1,9.985096059E0
1.372628217E1,1.006155540E1,9.752425537E-1,-8.205274934E-1,1.014195546E1
1.373630917E1,1.012391128E1,1.028223225E0,-7.920041907E-1,1.020676703E1
1.374633517E1,1.013992213E1,1.071586176E0,-7.511590505E-1,1.022401866E1
1.375636117E1,1.015606863E1,1.117352479E0,-7.716406775E-1,1.024644504E1
1.376638717E1,1.013216287E1,1.146868493E0,-7.311206424E-1,1.022304109E1
1.377641317E1,1.008489398E1,1.162292936E0,-6.620293576E-1,1.017321455E1
1.378644017E1,1.008693232E1,1.200054182E0,-5.943823349E-1,1.017544220E1
1.379646617E1,1.005070648E1,1.220812747E0,-5.231375206E-1,1.013808450E1
1.380649217E1,1.004005285E1,1.233396759E0,-4.809685707E-1,1.012695708E1
1.381651817E1,1.001922390E1,1.240405232E0,-4.687057900E-1,1.010658883E1
1.382654517E1,9.996567110E0,1.231576229E0,-4.268444037E-1,1.008118694E1
1.383657117E1,9.979999609E0,1.252576650E0,-3.287959528E-1,1.006366967E1
1.384659717E1,9.965549970E0,1.249109251E0,-2.566822604E-1,1.004680775E1
1.385662317E1,9.950263009E0,1.277084962E0,-2.325706820E-1,1.003457867E1
1.386664917E1,9.902250352E0,1.298716736E0,-2.178526737E-1,9.989428761E0
1.387667617E1,9.874245697E0,1.318425361E0,-1.513423498E-1,9.963025546E0
1.388670217E1,9.880930234E0,1.363429480E0,-9.443019390E-2,9.975000717E0
1.389672817E1,9.866339092E0,1.388913692E0,-3.835071802E-2,9.963694049E0
1.390675417E1,9.874215292E0,1.425156781E0,1.126688290E-1,9.977168624E0
1.391678117E1,9.893730959E0,1.479481654E0,2.413053075E-1,1.000664812E1
1.392680717E1,9.899063619E0,1.536345826E0,4.053382715E-1,1.002577270E1
1.393683317E1,9.835896149E0,1.613290945E0,5.197543216E-1,9.980866960E0
1.394685917E1,9.593985143E0,1.716915593E0,6.256778026E-1,9.766464191E0
1.395688617E1,9.394036680E0,1.754179021E0,6.309975994E-1,9.577224397E0
1.396691217E1,9.360183055E0,1.770303303E0,4.265654916E-1,9.535667713E0
1.397693817E1,9.296119207E0,1.833094944E0,2.292289069E-1,9.477901417E0
1.398696417E1,9.267753194E0,2.056262700E0,1.777049967E-1,9.494790394E0
1.399699017E1,8.730399338E0,2.244560294E0,-4.364215583E-3,9.014318752E0
1.400701717E1,-1.363301952E1,-1.349753135E0,-1.556862098E-1,1.370055813E1
1.401704317E1,-3.623736121E1,-6.838961899E0,-2.246288000E0,3.694541320E1
1.402706917E1,-3.767528743E1,-3.200755616E0,-1.249501336E1,3.982207275E1
1.403709517E1,-2.856628673E1,1.929935507E0,-1.065897712E1,3.055112407E1
1.404712217E1,-1.177741967E1,4.387797111E0,1.319679735E0,1.263732298E1
1.405714817E1,-1.399000490E1,1.240888212E0,5.824633706E0,1.520481498E1
1.406717417E1,-1.552308520E1,-6.570878025E-1,6.124659019E0,1.670058043E1
1.407720017E1,-1.584373715E1,-1.040625242E0,6.358155881E0,1.710359769E1
1.408722717E1,-1.646104291E1,-1.290343377E0,6.242326047E0,1.765212606E1
1.409725317E1,-1.649631683E1,-1.509474508E0,5.171200340E0,1.735362484E1
1.410727917E1,-1.668647997E1,-1.877388041E0,3.391400281E0,1.713081421E1
1.411730517E1,-1.644809718E1,-2.000587998E0,2.221056679E0,1.671751614E1
1.412733117E1,-1.577355536E1,-2.162311750E0,1.911617496E0,1.603542710E1
1.413735817E1,-1.530662245E1,-2.337199632E0,2.003012254E0,1.561304746E1
1.414738417E1,-1.426971114E1,-2.490828791E0,1.885316573E0,1.460764535E1
1.415741017E1,-1.325980929E1,-2.853802012E0,1.722882092E0,1.367241935E1
1.416743617E1,-1.228711444E1,-3.078966592E0,1.302277252E0,1.273377959E1
1.417746317E1,-1.100255133E1,-2.936175247E0,1.050563389E0,1.143594964E1
1.418748917E1,-9.426101056E0,-2.732155368E0,1.272339946E0,9.896206496E0
1.419751517E1,-7.711682809E0,-2.496556139E0,1.663383749E0,8.274641370E0
1.420754117E1,-6.029679186E0,-2.165691587E0,1.645829238E0,6.614832199E0
1.421756817E1,-4.342760979E0,-1.856423434E0,1.323348863E0,4.904807142E0
1.422759417E1,-2.597184674E0,-1.520503819E0,9.340734047E-1,3.151157441E0
1.423762017E1,-7.734439588E-1,-1.119299748E0,5.832819808E-1,1.480292320E0
1.424764617E1,1.103984721E0,-6.512932849E-1,3.159192145E-1,1.320140203E0
1.425767217E1,2.983912500E0,-1.642205134E-1,7.735749364E-2,2.989429104E0
1.426769917E1,4.523344048E0,2.876682459E-1,-4.590466283E-2,4.532714599E0
1.427772517E1,5.803569111E0,6.338586420E-1,-1.372867763E-1,5.839695100E0
1.428775117E1,6.786087867E0,9.066226275E-1,-2.228688904E-1,6.850009027E0
1.429777717E1,7.675665130E0,1.105423136E0,-2.927069378E-1,7.760378396E0
1.430780417E1,8.414960180E0,1.248256581E0,-3.451447678E-1,8.514036894E0
1.431783017E1,8.998750284E0,1.336993341E0,-3.956413221E-1,9.106129250E0
1.432785617E1,9.467050277E0,1.430377906E0,-4.688647612E-1,9.585971837E0
1.433788217E1,9.794353436E0,1.447866051E0,-5.258395554E-1,9.914745713E0
1.434790817E1,9.958000045E0,1.454142014E0,-6.249925820E-1,1.008300102E1
1.435793517E1,1.007290251E1,1.464736584E0,-7.770598769E-1,1.020845925E1
1.436796117E1,1.014858653E1,1.467135989E0,-8.233288944E-1,1.028708739E1
1.437798717E1,1.021261354E1,1.479554890E0,-8.007422698E-1,1.035025344E1
1.438801317E1,1.023249875E1,1.496394287E0,-6.690758371E-1,1.036295754E1
1.439804017E1,1.019025964E1,1.478882753E0,-4.827695131E-1,1.030832441E1
1.440806617E1,1.006904335E1,1.482798341E0,-3.122939408E-1,1.018242861E1
1.441809217E1,9.963239150E0,1.495708701E0,-9.796834409E-2,1.007535988E1
1.442811817E1,9.899502161E0,1.553716442E0,2.710979676E-1,1.002435394E1
1.443814517E1,9.816544204E0,1.678749209E0,6.029666322E-1,9.977289600E0
1.444817117E1,9.715709555E0,1.841706285E0,6.879032868E-1,9.912623524E0
1.445819717E1,9.591035807E0,2.052864737E0,4.946908164E-1,9.820740323E0
1.446822317E1,9.447711196E0,2.380331618E0,2.176076388E-1,9.745387552E0
1.447824917E1,9.436275212E0,2.551207140E0,-2.487177132E-2,9.775099301E0
1.448827617E1,9.473236046E0,2.511945718E0,-3.093686519E-1,9.805497511E0
1.449830217E1,9.514040256E0,2.437133956E0,-5.604105236E-1,9.837207117E0
1.450832817E1,9.576491443E0,2.365642974E0,-7.456848141E-1,9.892497201E0
1.451835367E1,9.797461815E0,2.336734193E0,-8.490659988E-1,1.010799178E1
1.452838067E1,1.001820064E1,2.270817654E0,-9.841331720E-1,1.031937377E1
1.453840667E1,1.017010078E1,2.231261533E0,-1.082362887E0,1.046809377E1
1.454843267E1,1.030861781E1,2.286639927E0,-1.110090456E0,1.061737369E1
1.455845867E1,1.038194189E1,2.352207680E0,-1.158394305E0,1.070791650E1
1.456848467E1,1.020450696E1,2.422534189E0,-1.249717215E0,1.056231165E1
1.457851167E1,9.932784512E0,2.472374978E0,-1.334235209E0,1.032245270E1
1.458853767E1,9.851697664E0,2.594172480E0,-1.378025446E0,1.028030310E1
1.459856367E1,9.791067300E0,2.741234924E0,-1.318989618E0,1.025276067E1
1.460858967E1,9.631717225E0,2.806217955E0,-1.288842543E0,1.011464043E1
1.461861667E1,9.334456476E0,3.187775966E0,-1.545118550E0,9.984056523E0
1.462864267E1,-6.634245032E-1,2.360955115E0,-3.879487252E0,4.589625526E0
1.463866867E1,-3.065266917E1,-2.717789636E0,-6.439791782E0,3.143952012E1
1.464869467E1,-3.575823100E1,-2.169982713E0,-5.522419195E0,3.624716572E1
1.465872167E1,-3.141595768E1,-1.462838139E0,-3.190207531E0,3.161138587E1
1.466874767E1,-2.637918015E1,-3.804989339E0,-1.112904794E0,2.667541277E1
1.467877367E1,-2.343503924E1,-6.335934708E0,-1.728251005E0,2.433787140E1
1.468879967E1,-1.708417718E1,-3.542823286E0,-1.216371787E0,1.749000477E1
1.469882567E1,-1.324246528E1,4.308330088E-1,2.763957789E0,1.353469491E1
1.470885267E1,-1.444549949E1,7.374815360E-1,5.228735188E0,1.538037731E1
1.471887867E1,-1.607940801E1,-6.159573913E-2,5.973541238E0,1.715326065E1
1.472890467E1,-1.677666743E1,-9.305791086E-1,5.879736696E0,1.780151261E1
1.473893067E1,-1.722159142E1,-2.027261242E0,5.607566350E0,1.822464813E1
1.474895767E1,-1.696309888E1,-3.062140059E0,4.962713188E0,1.793744540E1
1.475898367E1,-1.625869300E1,-3.971741697E0,4.013211905E0,1.721120856E1
1.476900967E1,-1.486530619E1,-4.509202557E0,2.869312336E0,1.579693606E1
1.477903567E1,-1.321578560E1,-4.818375839E0,1.613286998E0,1.415896994E1
1.478906267E1,-1.142546172E1,-4.857085284E0,9.216626894E-1,1.244917327E1
1.479908867E1,-9.481912730E0,-4.799015123E0,7.510036607E-1,1.065369521E1
1.480911467E1,-7.614343625E0,-4.549837782E0,4.963543493E-1,8.884009249E0
1.481914067E1,-5.814747818E0,-4.121316982E0,6.310534403E-2,7.127448922E0
1.482916667E1,-4.184889665E0,-3.631760606E0,-3.131616676E-1,5.549869983E0
1.483919367E1,-2.496579820E0,-3.109016018E0,-6.185722661E-1,4.035036932E0
1.484921967E1,-7.351476198E-1,-2.486692178E0,-8.441252477E-1,2.727018050E0
1.485924567E1,1.096378663E0,-1.732163962E0,-9.869374967E-1,2.275188736E0
1.486927167E1,2.830176337E0,-1.005070589E0,-1.031340083E0,3.175488522E0
1.487929867E1,4.365434142E0,-3.150557269E-1,-9.916013820E-1,4.487710849E0
1.488932467E1,5.644591504E0,2.598603500E-1,-9.603301804E-1,5.731594429E0
1.489935067E1,6.676316333E0,7.159010710E-1,-9.846174677E-1,6.786397106E0
1.490937667E1,7.448397306E0,1.038628930E0,-1.008896130E0,7.587835257E0
1.491940267E1,8.134877381E0,1.261897843E0,-1.032301584E0,8.296641653E0
1.492942967E1,8.767770647E0,1.477419926E0,-1.047752121E0,8.952896530E0
1.493945567E1,9.255944742E0,1.586391999E0,-1.083818843E0,9.453243672E0
1.494948167E1,9.607826672E0,1.645634087E0,-1.116477735E0,9.811471217E0
1.495950767E1,9.780221885E0,1.631083438E0,-1.128238387E0,9.979283299E0
1.496953467E1,9.892556838E0,1.612909414E0,-1.208566850E0,1.009578087E1
1.497956067E1,1.003045172E1,1.585509946E0,-1.339538049E0,1.024295689E1
1.498958667E1,1.018015682E1,1.600141434E0,-1.387882243E0,1.039818554E1
1.499961267E1,1.027257089E1,1.597100590E0,-1.377954256E0,1.048690617E1
1.500963967E1,1.028039447E1,1.551369370E0,-1.336445457E0,1.048233484E1
1.501966567E1,1.025476144E1,1.524757960E0,-1.304561175E0,1.044925351E1
1.502969167E1,1.021576987E1,1.483842507E0,-1.284075454E0,1.040252817E1
1.503971767E1,1.014049165E1,1.459371764E0,-1.220267129E0,1.031738284E1
1.504974367E1,1.008366606E1,1.435537782E0,-1.129630024E0,1.024778776E1
1.505977067E1,1.002627097E1,1.418886666E0,-1.026254102E0,1.017804236E1
1.506979667E1,9.893191845E0,1.413926034E0,-8.331785291E-1,1.002839061E1
1.507982267E1,9.735233408E0,1.432066728E0,-6.083104026E-1,9.858784213E0
1.508984867E1,9.585438852E0,1.554026491E0,-3.861941220E-1,9.718270537E0
1.509987567E1,9.428682017E0,1.805451209E0,-3.521427155E-1,9.606440712E0
1.510990167E1,9.357258863E0,2.140824548E0,-3.281528322E-1,9.604639892E0
1.511992767E1,9.288637694E0,2.329566238E0,-3.304046680E-1,9.582005861E0
1.512995367E1,9.317336998E0,2.500445122E0,-3.443507159E-1,9.653163831E0
1.513997967E1,9.476025753E0,2.590634038E0,-3.610119183E-1,9.830400724E0
1.515000667E1,9.604308402E0,2.697867003E0,-4.019605543E-1,9.984127329E0
1.516003267E1,9.700378155E0,2.834457376E0,-4.484071809E-1,1.011595542E1
1.517005867E1,9.687449377E0,3.061545105E0,-5.892778619E-1,1.017678644E1
1.518008467E1,9.517491868E0,3.390341058E0,-9.166529413E-1,1.014481723E1
1.519011167E1,9.454714406E0,3.715484840E0,-1.250505420E0,1.023524381E1
1.520013767E1,9.494682464E0,4.179401176E0,-1.600180757E0,1.049652170E1
1.521016367E1,9.421013394E0,4.640762863E0,-1.724067907E0,1.064258350E1
1.522018967E1,9.343246011E0,4.953489790E0,-1.668834524E0,1.070599439E1
1.523021567E1,6.313514729E0,5.222565206E0,-1.986162917E0,8.430925138E0
1.524024267E1,-1.846746702E1,1.738017025E0,-3.337467903E0,1.884692901E1
1.525026867E1,-3.964279831E1,-6.447440525E0,-6.022522194E0,4.061270394E1
1.526029467E1,-3.499725097E1,-1.488733850E1,-8.976302823E0,3.907703207E1
1.527032067E1,-1.977876360E1,-1.040389234E1,-5.112915879E0,2.292558340E1
1.528034767E1,-3.842902393E0,1.302088387E0,2.018460451E0,4.531833577E0
1.529037367E1,2.008830233E0,6.157337353E0,4.999388094E0,8.181814193E0
1.530039967E1,-3.712199582E0,5.063665951E0,6.381871018E0,8.952620638E0
1.531042567E1,-1.088578243E1,3.229870656E0,5.393695666E0,1.257077072E1
1.532045267E1,-1.883290396E1,7.207415423E-1,4.083446320E0,1.928399009E1
1.533047867E1,-2.406839327E1,-1.786558855E0,2.195147667E0,2.423423241E1
1.534050467E1,-2.186230897E1,-2.125482478E0,2.695559399E0,2.213016651E1
1.535053067E1,-1.822087707E1,-1.641598193E0,4.197800902E0,1.877010224E1
1.536055667E1,-1.661956210E1,-1.958851742E0,4.338252191E0,1.728778114E1
1.537058367E1,-1.585694952E1,-2.404527396E0,4.182970608E0,1.657473509E1
1.538060967E1,-1.495434291E1,-2.747557811E0,3.855877950E0,1.568595679E1
1.539063567E1,-1.392831093E1,-3.087133398E0,3.682455965E0,1.473393090E1
1.540066167E1,-1.390679317E1,-3.578634851E0,3.382353469E0,1.475282477E1
1.541068867E1,-1.357257568E1,-3.892041809E0,2.827788334E0,1.439997177E1
1.542071467E1,-1.277318997E1,-4.047243285E0,2.285693117E0,1.359260656E1
1.543074067E1,-1.151001129E1,-3.887250600E0,1.758832382E0,1.227536429E1
1.544076667E1,-9.811036127E0,-3.654743964E0,1.277553324E0,1.054730894E1
1.545079367E1,-7.796292019E0,-3.321762866E0,8.324299394E-1,8.515234430E0
1.546081967E1,-5.578588133E0,-2.838768235E0,4.619312060E-1,6.276354921E0
1.547084567E1,-3.278412194E0,-2.289756493E0,2.348405528E-1,4.005761026E0
1.548087167E1,-1.031556430E0,-1.807194995E0,2.373574868E-2,2.081015570E0
1.549089767E1,1.036454058E0,-1.267626506E0,-1.429148676E-1,1.643635797E0
1.550092467E1,2.893761299E0,-7.802359383E-1,-3.141687043E-1,3.013523610E0
1.551095067E1,4.427516955E0,-3.367168104E-1,-4.605484857E-1,4.464122478E0
1.552097675E1,5.735282403E0,1.340156977E-1,-5.885864286E-1,5.766962670E0
1.553100275E1,6.914769881E0,4.914540902E-1,-7.126890492E-1,6.968751345E0
1.554102975E1,7.908780169E0,7.921892551E-1,-7.836227918E-1,7.986891277E0
1.555105575E1,8.679015176E0,1.048005232E0,-8.268992043E-1,8.781080895E0
1.556108175E1,9.201225328E0,1.206684047E0,-8.149545121E-1,9.315727819E0
1.557110775E1,9.598141344E0,1.318596246E0,-8.292474461E-1,9.723716606E0
1.558113375E1,9.792988696E0,1.406983489E0,-8.573644403E-1,9.930624548E0
1.559116075E1,9.889779410E0,1.431283202E0,-8.767496413E-1,1.003120124E1
1.560118675E1,9.981597068E0,1.426930534E0,-8.899111390E-1,1.012227013E1
1.561121275E1,1.003401853E1,1.399207862E0,-8.855000726E-1,1.016973062E1
1.562123875E1,1.009864429E1,1.361160906E0,-8.756825975E-1,1.022752148E1
1.563126575E1,1.011790034E1,1.317524159E0,-8.038120580E-1,1.023493484E1
1.564129175E1,1.007663069E1,1.260856746E0,-6.998215203E-1,1.017929251E1
1.565131775E1,1.001223648E1,1.238057867E0,-5.708450627E-1,1.010462917E1
1.566134375E1,9.977934372E0,1.204571083E0,-4.139806024E-1,1.005890381E1
1.567137075E1,1.002897589E1,1.167954429E0,-2.591848505E-1,1.010008177E1
1.568139675E1,1.015998509E1,1.134101097E0,-1.385977221E-1,1.022402522E1
1.569142275E1,1.027728258E1,1.115215175E0,-7.560099006E-2,1.033788942E1
1.570144875E1,1.030312610E1,1.117703166E0,6.258859634E-3,1.036357598E1
1.571147475E1,1.030738989E1,1.141438768E0,7.630031705E-2,1.037067937E1
1.572150175E1,1.025302716E1,1.174523484E0,1.416704339E-1,1.032105333E1
1.573152775E1,1.018040006E1,1.168846714E0,1.708182192E-1,1.024870367E1
1.574155375E1,1.012862180E1,1.168610487E0,1.460154998E-1,1.019685984E1
1.575157975E1,1.008213176E1,1.142396031E0,8.456005733E-2,1.014699955E1
1.576160675E1,1.002883789E1,1.120113973E0,4.901194632E-2,1.009131542E1
1.577163275E1,9.999208882E0,1.055221720E0,1.609321855E-2,1.005474665E1
1.578165875E1,9.958616341E0,1.006574786E0,-8.698084116E-2,1.000973516E1
1.579168475E1,9.903992822E0,9.890720958E-1,-1.944123922E-1,9.955156132E0
1.580171075E1,9.941178775E0,1.085399126E0,-2.721517090E-1,1.000395888E1
1.581173775E1,9.942805470E0,1.317038840E0,-3.502985036E-1,1.003577007E1
1.582176375E1,9.794505463E0,1.424441375E0,-5.230989289E-1,9.911357273E0
1.583178975E1,9.777260855E0,1.587960222E0,-6.570891181E-1,9.927145290E0
1.584181575E1,9.733690912E0,1.823170027E0,-7.523367528E-1,9.931500305E0
1.585184275E1,9.713967669E0,2.176096854E0,-9.207791752E-1,9.997219597E0
1.586186875E1,9.736806309E0,2.904210858E0,-1.114788694E0,1.022167264E1
1.587189475E1,9.776296064E0,3.806925060E0,-1.294195962E0,1.057088390E1
1.588192075E1,2.558586034E0,3.860263361E0,-2.017531475E0,5.051576879E0
1.589194675E1,-3.618561101E1,-1.998487824E0,-2.134254032E0,3.630354580E1
1.590197375E1,-3.596174451E1,-1.401424102E0,-4.969162667E-1,3.599247121E1
1.591199975E1,-2.513881731E1,2.420036551E0,-8.190311909E-2,2.525516622E1
1.592202575E1,-2.241896156E1,1.075002485E0,1.445812802E0,2.249123924E1
1.593205175E1,-1.902984052E1,-4.541479041E-1,1.968535755E0,1.913677647E1
1.594207875E1,-1.485749431E1,-2.813174388E-1,1.551673279E0,1.494094932E1
1.595210475E1,-1.283233689E1,-1.068955806E-1,1.941725248E0,1.297885179E1
1.596213075E1,-1.243754459E1,-1.223681172E-1,2.750983987E0,1.273873629E1
1.597215675E1,-1.350647408E1,-6.395253979E-1,3.256526066E0,1.390822767E1
1.598218375E1,-1.521118186E1,-1.332723704E0,3.271630594E0,1.561601014E1
1.599220975E1,-1.614897701E1,-1.567171032E0,3.426791723E0,1.658277375E1
1.600223575E1,-1.602329345E1,-1.406223497E0,3.645538985E0,1.649282729E1
1.601226175E1,-1.536123661E1,-1.500177435E0,3.578761443E0,1.584378920E1
1.602228775E1,-1.467672880E1,-2.097700310E0,3.313856846E0,1.519172018E1
1.603231475E1,-1.395484092E1,-2.571548434E0,2.950921340E0,1.449339101E1
1.604234075E1,-1.274345922E1,-2.973472004E0,2.554623960E0,1.333279386E1
1.605236675E1,-1.163289287E1,-3.482011366E0,2.127647263E0,1.232783365E1
1.606239275E1,-1.032439359E1,-3.734556411E0,2.116199877E0,1.118115900E1
1.607241975E1,-8.947550894E0,-3.751343767E0,1.799326981E0,9.867564271E0
1.608244575E1,-7.761373032E0,-3.744729104E0,1.397463491E0,8.730109485E0
1.609247175E1,-6.497918953E0,-3.572024281E0,1.000050462E0,7.482139341E0
1.610249775E1,-5.019541107E0,-3.289648496E0,5.918118989E-1,6.030573893E0
1.611252375E1,-3.187592071E0,-2.920122886E0,2.341331859E-1,4.329281607E0
1.612255075E1,-1.170479842E0,-2.390997816E0,-1.099174216E-1,2.664390260E0
1.613257675E1,8.547606021E-1,-1.794630352E0,-4.475084639E-1,2.037542051E0
1.614260275E1,2.649361133E0,-1.201575481E0,-6.439089824E-1,2.979516207E0
1.615262875E1,4.324910014E0,-6.137465590E-1,-8.587943038E-1,4.451860187E0
1.616265575E1,5.713936558E0,-7.987369671E-2,-1.029353638E0,5.806463614E0
1.617268175E1,6.915511308E0,3.467056820E-1,-1.170911366E0,7.022502040E0
1.618270775E1,7.791767444E0,6.718181813E-1,-1.218662653E0,7.915056426E0
1.619273375E1,8.474017643E0,9.165197709E-1,-1.238734975E0,8.612981356E0
1.620276075E1,9.048617678E0,1.088276030E0,-1.290164014E0,9.204691726E0
1.621278675E1,9.442587281E0,1.229321250E0,-1.323215547E0,9.613770575E0
1.622281275E1,9.711995988E0,1.330490068E0,-1.310902480E0,9.889971446E0
1.623283875E1,9.880044966E0,1.413217498E0,-1.277483304E0,1.006202941E1
1.624286475E1,9.965388587E0,1.443572879E0,-1.243846611E0,1.014593646E1
1.625289175E1,1.000733183E1,1.465536337E0,-1.187882398E0,1.018359228E1
1.626291775E1,1.012792481E1,1.505465365E0,-1.295990911E0,1.032089528E1
1.627294375E1,1.019171325E1,1.518220335E0,-1.271699238E0,1.038235190E1
1.628296975E1,1.021695802E1,1.517725368E0,-1.245666264E0,1.040391301E1
1.629299675E1,1.021907472E1,1.519253684E0,-1.222086782E0,1.040341847E1
1.630302275E1,1.017823542E1,1.492524161E0,-1.206533700E0,1.035759761E1
1.631304875E1,1.018058717E1,1.500146591E0,-1.163287182E0,1.035606257E1
1.632307475E1,1.019256227E1,1.497601298E0,-1.056314126E0,1.035600960E1
1.633310075E1,1.018114500E1,1.512406156E0,-9.285173804E-1,1.033466160E1
1.634312775E1,1.011661512E1,1.518782106E0,-8.285375941E-1,1.026348261E1
1.635315375E1,1.010868513E1,1.511336554E0,-7.411106104E-1,1.024787286E1
1.636317975E1,1.012100638E1,1.529634246E0,-6.791131675E-1,1.025844754E1
1.637320575E1,1.009049795E1,1.536923531E0,-6.123502439E-1,1.022522644E1
1.638323275E1,1.003884365E1,1.528760526E0,-4.569335908E-1,1.016485508E1
1.639325875E1,9.975144081E0,1.510019761E0,-3.413493401E-1,1.009456183E1
1.640328475E1,9.898732667E0,1.525176036E0,-2.641555685E-1,1.001902433E1
1.641331075E1,9.832393667E0,1.570805807E0,-2.017973159E-1,9.959122364E0
1.642333675E1,9.758799441E0,1.789868672E0,-1.935060372E-1,9.923469201E0
1.643336375E1,9.730469681E0,2.167964546E0,-2.735625690E-1,9.972810385E0
1.644338975E1,9.703743812E0,2.641878159E0,-4.249428892E-1,1.006591976E1
1.645341575E1,9.529768682E0,3.069408149E0,-5.850537602E-1,1.002896034E1
1.646344175E1,9.480905839E0,3.508389033E0,-7.788971452E-1,1.013918389E1
1.647346875E1,9.641366301E0,3.965919625E0,-9.719003583E-1,1.047038934E1
1.648349475E1,9.746186997E0,4.269475486E0,-9.029749882E-1,1.067857414E1
1.649352075E1,9.743365715E0,4.479333225E0,-7.314878476E-1,1.074861275E1
1.650354675E1,9.615989385E0,4.635658536E0,-7.046758787E-1,1.069827790E1
1.651357275E1,2.435139617E0,4.210958599E0,-1.116698322E0,4.990900962E0
1.652360025E1,-3.746484614E1,-3.413767635E0,-1.358880054E0,3.764458873E1
1.653362625E1,-4.228704489E1,-5.050999712E0,3.116639033E-2,4.258764768E1
1.654365225E1,-3.306632962E1,-4.125522007E-1,-2.169900267E-1,3.306961503E1
1.655367825E1,-2.710584404E1,2.078827837E0,5.905208337E-1,2.719185579E1
1.656370525E1,-2.444043055E1,-5.481555636E-1,1.772570707E0,2.451075533E1
1.657373125E1,-1.874082669E1,-1.410385253E0,1.358278960E0,1.884284196E1
1.658375725E1,-1.410394608E1,-1.031768976E-1,2.114777542E0,1.426198530E1
1.659378325E1,-1.298952642E1,5.584156729E-1,3.815868376E0,1.354992532E1
1.660381025E1,-1.300553727E1,4.448951970E-1,4.247169528E0,1.368869535E1
