"Time (s)","Linear Acceleration x (m/s^2)","Linear Acceleration y (m/s^2)","Linear Acceleration z (m/s^2)","Absolute acceleration (m/s^2)"
7.440458343E-3,-1.318234304E0,5.134426031E0,3.572471008E0,6.392387774E0
1.751945831E-2,-5.516234010E-1,9.722268376E0,-2.848595066E0,1.014599845E1
2.759845834E-2,-2.632124126E0,6.193374912E0,-5.945846486E0,8.979925426E0
3.767745831E-2,-3.214255959E0,1.767288771E0,-2.078244577E0,4.215904588E0
4.775645834E-2,-8.021391696E-1,3.631399248E0,1.489933844E0,4.006293874E0
5.783545831E-2,1.701925671E-1,2.069329619E-3,6.046438476E0,6.048833609E0
6.791445834E-2,4.024132749E0,-6.149315557E0,9.575030808E0,1.207016741E1
7.799345831E-2,4.736634103E0,-1.584512411E1,2.614932844E1,3.094012021E1
8.807245834E-2,-6.858614391E-1,-1.938766790E1,2.611817448E1,3.253476772E1
9.815045836E-2,-5.249312124E0,-1.471807564E1,1.446183778E1,2.129135459E1
1.082294583E-1,-6.125203394E0,-8.790204660E0,1.120520530E1,1.550298166E1
1.183084584E-1,-7.749461669E0,-5.993114208E0,1.099860796E1,1.472891548E1
1.283874583E-1,-7.458750971E0,1.256519281E0,1.891091868E-2,7.563872313E0
1.384664584E-1,-4.459908190E0,9.336742737E0,-1.721066181E1,2.008164400E1
1.485454583E-1,7.212811233E0,3.166647111E1,-8.597959903E0,3.359635327E1
1.586244584E-1,9.082319859E0,2.172115952E1,3.941421691E-1,2.354681832E1
1.687034583E-1,-2.271601181E0,-8.422200787E0,3.878514276E0,9.546544454E0
1.787824584E-1,1.362025271E0,-1.507133283E0,9.461331700E0,9.676949990E0
1.888614583E-1,4.214718651E0,2.759440230E0,8.528775648E0,9.905472111E0
1.989404584E-1,-7.815154552E-2,-3.893006015E-1,6.520991482E0,6.533069150E0
2.090194583E-1,6.809611800E-1,-2.367188539E0,6.618885566E0,7.062360501E0
2.190974584E-1,2.117044946E0,-8.477597308E-1,5.199813105E0,5.677907378E0
2.291764583E-1,1.661518195E0,-2.421800948E0,2.931519694E0,4.149647004E0
2.392554583E-1,1.563270939E0,-3.189763142E0,-3.710713585E-1,3.571568127E0
2.493344583E-1,2.770565727E0,-2.939971844E0,-2.741257728E0,4.882003976E0
2.594134583E-1,4.393794015E0,-3.008174937E0,-3.543402160E0,6.396111410E0
2.694924583E-1,5.366725384E0,-2.480615167E0,-1.707123846E0,6.153817090E0
2.795714583E-1,4.635214440E0,-1.416005597E0,5.334695506E-1,4.875948576E0
2.896504583E-1,2.425115443E0,-2.651542729E-1,2.042450408E0,3.181681217E0
2.997294583E-1,-1.579294210E0,1.073003249E0,1.130809115E0,2.219061835E0
3.098084583E-1,-4.478234534E0,1.599197109E0,-8.154386616E-1,4.824619792E0
3.198874583E-1,-6.415344574E0,3.242875156E0,-1.888779294E-1,7.190866440E0
3.299664583E-1,-7.164397457E0,6.695087065E0,-1.147624976E0,9.872680731E0
3.400454583E-1,-7.927528682E0,7.223390601E0,-3.721091735E0,1.135207499E1
3.501234584E-1,-7.460927889E0,5.959264677E0,-5.083368144E0,1.081752801E1
3.602024583E-1,-6.667792847E0,3.310914527E0,-5.399992533E0,9.196822050E0
3.702814584E-1,-6.100297179E0,2.309006989E-1,-5.471870016E0,8.198066984E0
3.803604583E-1,-6.519360693E0,-2.403190430E0,-5.127802305E0,8.635493302E0
3.904394584E-1,-3.778852285E0,-2.948109414E0,-4.025742488E0,6.259207321E0
4.005184583E-1,-1.231896071E0,-2.579129641E0,-2.746679267E0,3.964054065E0
4.105974584E-1,-1.009667670E0,-2.625009234E0,-1.723036166E0,3.298326229E0
4.206764583E-1,-1.575125584E0,-3.287669506E0,-1.738131630E0,4.038674653E0
4.307554584E-1,-1.426430013E0,-3.631438424E0,-1.892112207E0,4.336143011E0
4.408344583E-1,-2.365131196E0,-4.000107125E0,-2.558852667E0,5.304943879E0
4.509134584E-1,-3.542001460E0,-4.070604081E0,-4.398689597E0,6.961613469E0
4.609924583E-1,-3.196654671E0,-4.175004362E0,-7.519141014E0,9.175333460E0
4.710714584E-1,-1.164530592E0,-4.229986900E0,-4.843910045E0,6.535471307E0
4.811504583E-1,1.234305124E0,-2.897823944E0,1.952359286E0,3.705752222E0
4.912284584E-1,3.121097535E0,-1.925896250E0,3.196165259E0,4.864750615E0
5.013074583E-1,4.854785574E0,-1.663356852E0,1.564155915E0,5.364912181E0
5.113864584E-1,5.744316351E0,-1.594222298E0,-1.627729182E0,6.179661590E0
5.214654583E-1,6.430563122E0,-1.796893224E0,-3.467252994E0,7.523483944E0
5.315444584E-1,7.795868681E0,-1.572296993E0,-5.444735427E0,9.638092664E0
5.416234583E-1,9.997454717E0,-1.280978769E0,-6.107587488E0,1.178527184E1
5.517024584E-1,9.591004817E0,2.906001860E-1,-6.069496386E0,1.135388076E1
5.617814583E-1,7.161981388E0,3.377082789E-1,-5.737008501E0,9.182662513E0
5.718604584E-1,4.963072207E0,-4.782876223E-1,-5.769095097E0,7.625175606E0
5.819394583E-1,3.159458778E0,-2.820967557E0,-3.986434288E0,5.816502047E0
5.920184584E-1,2.011527846E0,-5.483139355E0,-9.063672504E-1,5.910377573E0
6.020974583E-1,7.501869509E-1,-7.558878107E0,1.543811405E0,7.751307783E0
6.121764584E-1,-3.474522252E-1,-8.255031815E0,2.709043078E0,8.695124365E0
6.222544583E-1,-3.408634365E-2,-7.127374642E0,3.613852338E0,7.991280241E0
6.323334583E-1,3.563185045E-1,-5.777651328E0,4.343052170E0,7.236734063E0
6.424124583E-1,2.241506732E-1,-5.171855228E0,5.063769447E0,7.241553081E0
6.524914583E-1,3.436028570E-2,-5.107920603E0,6.035015355E0,7.906544368E0
6.625704583E-1,-3.771512568E-2,-5.391926883E0,6.719455336E0,8.615415136E0
6.726494583E-1,1.970847890E-1,-5.701606534E0,7.143891272E0,9.142337884E0
6.827284583E-1,2.625016835E-1,-5.393609712E0,6.519392853E0,8.465365676E0
6.928074583E-1,-7.301409414E-1,-4.995219029E0,5.091234988E0,7.169797253E0
7.028864583E-1,-1.450687187E0,-4.331038481E0,4.097262121E0,6.135955063E0
7.129654583E-1,-1.960397454E0,-3.284731865E0,3.339547465E0,5.077912846E0
7.230444583E-1,-2.318865687E0,-1.899569746E0,2.477183436E0,3.888694006E0
7.331234583E-1,-2.445314941E0,-6.149019688E-1,1.876071102E0,3.142819176E0
7.432024583E-1,-2.246999606E0,5.551352388E-1,1.680312169E0,2.860180300E0
7.532804583E-1,-1.978736368E0,1.559016212E0,1.820282379E0,3.107950628E0
7.633594584E-1,-1.668936850E0,2.362630634E0,2.225062022E0,3.649421149E0
7.734384583E-1,-1.474819230E0,3.044279155E0,2.933341101E0,4.477411903E0
7.835174584E-1,-1.487280816E0,3.536279667E0,3.649762721E0,5.295096413E0
7.935964583E-1,-1.539248238E0,4.379646969E0,4.484059238E0,6.454252858E0
8.036754584E-1,-1.526555687E0,4.901630834E0,5.088304363E0,7.228222354E0
8.137544583E-1,-1.516534436E0,5.260615962E0,5.603559837E0,7.834145763E0
8.238334584E-1,-1.450779280E0,5.873026432E0,6.075257063E0,8.573561009E0
8.339124583E-1,-1.475036747E0,6.255958246E0,6.318218229E0,9.012914543E0
8.439914584E-1,-1.749465581E0,6.779156578E0,6.562642368E0,9.596138211E0
8.540704583E-1,-2.246352319E0,7.183149478E0,6.560090643E0,9.983913281E0
8.641494584E-1,-2.613613011E0,7.546827580E0,5.926323218E0,9.945194135E0
8.742284583E-1,-3.036476630E0,7.623793895E0,4.835126942E0,9.524750718E0
8.843064583E-1,-3.411586039E0,7.333387837E0,3.754837771E0,8.917191439E0
8.943854583E-1,-3.610606841E0,6.823539283E0,2.346980269E0,8.068797091E0
9.044644583E-1,-3.610303078E0,6.178526493E0,3.395831886E-1,7.164062722E0
9.145434583E-1,-3.300821064E0,5.473359886E0,-1.280401941E0,6.518628481E0
9.246224583E-1,-2.807386814E0,4.776572925E0,-2.240810620E0,5.976479053E0
9.347014583E-1,-2.322877754E0,4.100315537E0,-2.918133371E0,5.542909970E0
9.447804583E-1,-1.777276693E0,3.193504776E0,-3.468212814E0,5.038420915E0
9.548594583E-1,-1.088827568E0,1.718049953E0,-4.413480421E0,4.859634816E0
9.649384583E-1,-2.355083048E-2,-6.205831236E-1,-5.395100752E0,5.430726487E0
9.750174583E-1,1.239807939E0,-3.549390879E0,-6.438691921E0,7.456007845E0
9.850964583E-1,2.590410382E0,-6.907236913E0,-7.180930459E0,1.029494585E1
9.951756250E-1,3.559358627E0,-1.006255996E1,-7.553393419E0,1.307585174E1
1.005254625E0,3.515324123E0,-1.192963906E1,-7.094495748E0,1.431801878E1
1.015332625E0,2.744522521E0,-1.299644953E1,-5.672506696E0,1.444359499E1
1.025411625E0,1.538414425E0,-1.146792654E1,-3.558777706E0,1.210557545E1
1.035490625E0,-9.286349094E-1,-8.376973159E0,-1.719433404E0,8.601888940E0
1.045569625E0,-2.580614834E0,-4.879798501E0,-8.872904170E-1,5.591000859E0
1.055648625E0,-3.189811967E0,-1.568681660E0,-4.382327333E-1,3.581579325E0
1.065727625E0,-3.498650788E0,9.819971842E-1,5.266557902E-1,3.671817278E0
1.075806625E0,-4.117296436E0,2.421213303E0,1.019417318E0,4.884016326E0
1.085885625E0,-4.333498405E0,2.524573950E0,-4.626603538E-1,5.036540147E0
1.095964625E0,-3.762025461E0,1.136896359E0,-1.050328331E0,4.067991949E0
1.106043625E0,-2.589693806E0,-7.193560445E-1,7.066874671E-1,2.779099549E0
1.116122625E0,-1.693448670E0,-2.047351690E0,5.465759676E0,6.077330514E0
1.126201625E0,-2.249556593E0,-3.154071153E0,1.048721633E1,1.117990948E1
1.136280625E0,-3.918918536E0,-3.888823501E0,1.256810590E1,1.372727783E1
1.146358625E0,-6.298976212E0,-3.532949678E0,1.076757863E1,1.296532237E1
1.156437625E0,-7.289502729E0,-2.248616946E0,7.604003409E0,1.077097935E1
1.166516625E0,-6.029756370E0,-3.994577998E-1,4.046182600E0,7.272490773E0
1.176595625E0,-4.121363467E0,1.409753754E0,6.593063092E-1,4.405420217E0
1.186674625E0,-2.751359086E0,2.491986832E0,-2.852833128E-1,3.723084979E0
1.196753625E0,-1.876260698E0,3.104925891E0,9.542202786E-1,3.751193854E0
1.206832625E0,-1.379769816E0,3.184671387E0,2.739740084E0,4.421772531E0
1.216911625E0,-9.160783061E-1,2.768552531E0,3.777620569E0,4.772263587E0
1.226990625E0,1.312144428E-2,2.220787708E0,3.648060304E0,4.270879792E0
1.237069625E0,1.171652793E0,1.635240515E0,3.616758989E0,4.138565862E0
1.247148625E0,2.088987958E0,1.181351570E0,3.707427084E0,4.416387416E0
1.257227625E0,3.192374801E0,1.098344496E0,4.797404800E0,5.866234765E0
1.267306625E0,5.039295341E0,1.160507416E0,6.564919859E0,8.356999925E0
1.277384625E0,6.084799719E0,1.065018876E0,8.126440433E0,1.020774642E1
1.287463625E0,6.566940072E0,1.293027542E0,8.689949470E0,1.096867558E1
1.297542625E0,6.341748594E0,1.738269040E0,6.914399752E0,9.541922155E0
1.307621625E0,4.621821100E0,1.652907878E0,3.965472313E0,6.310174752E0
1.317700625E0,2.748812623E0,1.466619095E0,1.221514852E0,3.346496816E0
1.327779625E0,9.039681378E-1,1.288066179E0,-1.743670698E0,2.348757199E0
1.337858625E0,-7.329525751E-1,1.138887336E0,-7.045339960E0,7.174336136E0
1.347937625E0,-1.429750062E0,1.259013703E0,-8.659484891E0,8.866565250E0
1.358016625E0,-1.656087593E0,1.436830455E0,-6.539159365E0,6.896935050E0
1.368095625E0,-1.577874360E0,1.749126735E0,-4.049371086E0,4.684713228E0
1.378174625E0,-1.263821284E0,1.947996386E0,-1.628264787E0,2.836050136E0
1.388253625E0,-5.683078462E-1,1.934054870E0,4.211221723E-1,2.059341140E0
1.398332625E0,3.816413337E-1,1.677946824E0,1.273819146E0,2.140974280E0
1.408410625E0,1.001615470E0,1.478090163E0,1.139738690E0,2.118251251E0
1.418489625E0,1.277102065E0,1.378422033E0,6.964180022E-2,1.880395428E0
1.428568625E0,1.324841657E0,1.061324605E0,-9.320672250E-1,1.936585822E0
1.438647625E0,1.230002743E0,5.389226639E-1,-1.552488088E0,2.052696678E0
1.448726625E0,9.433543977E-1,1.169519144E-1,-1.985637252E0,2.201442838E0
1.458805625E0,8.618863115E-1,-7.073376775E-3,-2.142498168E0,2.309371439E0
1.468884625E0,7.970933148E-1,2.248254418E-1,-2.299872176E0,2.444446003E0
1.478963625E0,9.066368070E-1,3.025109643E-1,-2.358414499E0,2.544724373E0
1.489042625E0,1.079859986E0,9.897581935E-2,-2.488333199E0,2.714349998E0
1.499121625E0,1.291401139E0,-4.709277320E-1,-2.598639168E0,2.939798523E0
1.509200625E0,1.383450639E0,-1.177349151E0,-2.749507273E0,3.295432739E0
1.519279625E0,1.338846031E0,-1.636300031E0,-2.855955541E0,3.553374247E0
1.529358625E0,1.398026870E0,-1.878074797E0,-2.749410209E0,3.611218710E0
1.539437625E0,1.891646769E0,-1.888764092E0,-2.455301986E0,3.629637053E0
1.549515625E0,2.693365816E0,-1.907067046E0,-1.887516881E0,3.801821157E0
1.559594625E0,3.410357247E0,-2.170142634E0,-1.060703630E0,4.179132421E0
1.569673625E0,3.933050379E0,-2.570165275E0,-2.481897461E-1,4.704915831E0
1.579752625E0,4.452774880E0,-2.975969642E0,3.501745427E-1,5.367142783E0
1.589831625E0,5.223641093E0,-3.205163539E0,5.854068589E-1,6.156476328E0
1.599910625E0,5.243547354E0,-2.869517573E0,-1.868442678E-1,5.980286844E0
1.609989625E0,4.906391637E0,-1.863347415E0,-2.677794389E0,5.891971255E0
1.620068625E0,4.251168146E0,-7.278859627E-1,-5.756562760E0,7.193070512E0
1.630147625E0,4.376039822E0,-1.934188771E-1,-7.808948318E0,8.953591973E0
1.640226625E0,5.098007233E0,-1.006452579E0,-6.750557846E0,8.518958608E0
1.650305625E0,5.169653751E0,-2.396728088E0,-4.243372639E0,7.104634880E0
1.660384625E0,5.001677864E0,-3.671046878E0,-2.487564875E0,6.684410643E0
1.670463625E0,4.646327658E0,-4.756287764E0,-1.130098678E0,6.744461211E0
1.680541625E0,3.995424382E0,-5.276615113E0,3.494939268E-2,6.618708674E0
1.690620625E0,2.857831913E0,-5.167108458E0,7.955747929E-1,5.958116507E0
1.700699625E0,1.730457745E0,-4.799502196E0,9.133304071E-1,5.183037504E0
1.710778625E0,1.330863705E0,-3.674562224E0,6.791295397E-1,3.966714342E0
1.720857625E0,1.367919557E0,-2.658519042E0,1.229041315E0,3.232563992E0
1.730936625E0,1.385702109E0,-2.287069405E0,2.370022831E0,3.573214941E0
1.741015625E0,1.374724546E0,-2.713251904E0,3.905381647E0,4.950112047E0
1.751094625E0,1.326679145E0,-3.693818275E0,5.808513517E0,7.010221129E0
1.761173625E0,7.421639863E-1,-4.760992434E0,7.498903216E0,8.913551805E0
1.771252625E0,-3.203022873E-1,-5.233610596E0,7.239710764E0,8.939053942E0
1.781331625E0,-9.296090555E-1,-5.394815408E0,5.713699161E0,7.912936521E0
1.791410625E0,-1.103897597E0,-5.062639765E0,4.431587201E0,6.818201846E0
1.801489625E0,-8.254327226E-1,-3.970904961E0,3.160697218E0,5.141928849E0
1.811568625E0,-4.505510625E-1,-2.359170837E0,2.038541836E0,3.150291433E0
1.821646625E0,-2.861013383E-1,-7.352756739E-1,1.210924448E0,1.445275860E0
1.831725625E0,-2.250137222E-1,8.069970363E-1,7.249377966E-1,1.107885464E0
1.841804625E0,-2.693359092E-1,2.036792203E0,7.005876517E-1,2.170688225E0
1.851883625E0,-3.725670397E-1,3.073812271E0,1.306614278E0,3.360709590E0
1.861962625E0,-6.811409819E-1,3.727217571E0,2.283250443E0,4.423724272E0
1.872041625E0,-8.481205040E-1,4.277014886E0,3.401724125E0,5.530270495E0
1.882120625E0,-9.088637191E-1,4.675503802E0,4.483023696E0,6.540938046E0
1.892199625E0,-1.288269662E0,4.928125153E0,5.061131183E0,7.180606179E0
1.902278625E0,-1.693867331E0,5.024891310E0,5.578795710E0,7.696861749E0
1.912357625E0,-1.996659546E0,5.017158367E0,6.136974424E0,8.174410224E0
1.922436625E0,-2.410369642E0,5.092126104E0,6.797702776E0,8.828838717E0
1.932515625E0,-3.162230650E0,5.130403731E0,6.921783031E0,9.177789792E0
1.942594625E0,-3.724542177E0,5.159522865E0,6.727592322E0,9.260312580E0
1.952672625E0,-4.305497551E0,5.087612638E0,6.237931280E0,9.128685457E0
1.962751625E0,-4.725564154E0,4.762502185E0,5.731861782E0,8.824206657E0
1.972830625E0,-4.993885864E0,4.381924460E0,4.982701310E0,8.304665577E0
1.982909625E0,-5.259430146E0,4.053965828E0,3.836250893E0,7.668967683E0
1.992987833E0,-5.265573231E0,3.816512740E0,2.564822966E0,6.990732994E0
2.003066833E0,-5.262815684E0,3.670588456E0,9.580975673E-1,6.487557282E0
2.013145833E0,-5.110446015E0,3.469178774E0,-1.509397910E0,6.358470090E0
2.023224833E0,-4.517610561E0,3.252293267E0,-3.448048984E0,6.547920163E0
2.033303833E0,-3.324151746E0,3.024667593E0,-4.027027998E0,6.034530088E0
2.043382833E0,-2.012900480E0,2.272133862E0,-3.965368817E0,4.993847263E0
2.053461833E0,-7.494048858E-1,7.042988795E-1,-3.726732252E0,3.866028695E0
2.063540833E0,6.777031115E-1,-1.584322962E0,-3.544917466E0,3.941547995E0
2.073618833E0,2.310883653E0,-4.171121811E0,-4.738215190E0,6.722285594E0
2.083697833E0,3.928544514E0,-6.672893958E0,-6.875314039E0,1.035523630E1
2.093776833E0,5.201600014E0,-8.558216963E0,-8.240022597E0,1.296910532E1
2.103855833E0,5.808428732E0,-9.242843471E0,-8.757990010E0,1.399537026E1
2.113934833E0,5.471157825E0,-7.552568377E0,-7.174781528E0,1.176657754E1
2.124013833E0,3.665502548E0,-4.543286562E0,-4.086953773E0,7.126047492E0
2.134092833E0,2.057678750E0,-1.475846586E0,-1.828076718E0,3.123144164E0
2.144171833E0,1.186822810E0,1.444293841E0,-2.364663711E-1,1.884263630E0
2.154250833E0,3.017052180E-1,3.883948678E0,9.402708685E-1,4.007517021E0
2.164329833E0,-7.033767736E-1,5.724405413E0,9.298028907E-1,5.841925165E0
2.174408833E0,-1.347563937E0,6.082635664E0,2.067829809E-1,6.233549903E0
2.184487833E0,-9.082991704E-1,4.841140219E0,1.217074549E-1,4.927114643E0
2.194566833E0,1.422408298E-1,2.617137128E0,3.500878869E0,4.373304478E0
2.204645833E0,1.988687745E-1,-1.827722669E-2,6.875744394E0,6.878644039E0
2.214723833E0,-1.480576107E0,-3.402390708E0,8.805785151E0,9.555638139E0
2.224802833E0,-3.486799359E0,-6.976760892E0,1.195490254E1,1.427419550E1
2.234881833E0,-5.102562214E0,-1.020037415E1,1.260659344E1,1.700029329E1
2.244960833E0,-7.109191555E0,-1.118669652E1,5.627774327E0,1.439981345E1
2.255039833E0,-8.913655170E0,-9.176452430E0,2.476416281E0,1.303047065E1
2.265118833E0,-7.751701738E0,-5.599826975E0,2.126908321E0,9.796462677E0
2.275197833E0,-5.888550205E0,-1.367166143E0,-1.568521300E0,6.245352339E0
2.285276833E0,-4.363722370E0,1.416265798E0,-2.999371369E0,5.481250801E0
2.295355833E0,-3.494771453E0,3.124780111E0,-1.475227805E0,4.914669401E0
2.305434833E0,-3.329968264E0,4.255699446E0,3.319500871E-1,5.413857892E0
2.315513833E0,-2.998411548E0,4.696371346E0,1.339770184E0,5.730738153E0
2.325592833E0,-1.950379127E0,4.561439828E0,1.670224407E0,5.234535472E0
2.335671833E0,-7.186543787E-1,3.992901016E0,2.062585441E0,4.551261511E0
2.345749833E0,9.142723936E-1,3.264201121E0,3.632539455E0,4.968525522E0
2.355828833E0,3.303456404E0,2.129203354E0,6.341914655E0,7.460979334E0
2.365907833E0,5.908423721E0,8.930341369E-1,9.088814946E0,1.087720267E1
2.375986833E0,7.838152236E0,-3.812676966E-2,1.098985585E1,1.349870423E1
2.386065833E0,8.774189136E0,-3.499804151E-1,1.103975599E1,1.410620763E1
2.396144833E0,8.317680638E0,6.368073928E-1,8.068483416E0,1.160559173E1
2.406223833E0,5.897299393E0,1.890358043E0,3.744783776E0,7.237057357E0
2.416302833E0,3.507114048E0,2.528854111E0,1.137004094E0,4.470763958E0
2.426381833E0,1.167252764E0,2.649006207E0,-1.417878752E0,3.223366727E0
2.436460833E0,-1.171906562E0,2.326170906E0,-7.237070746E0,7.691529696E0
2.446539833E0,-2.586293650E0,1.986900251E0,-1.039292530E1,1.089263897E1
2.456618833E0,-2.789874403E0,1.760518280E0,-7.258704275E0,7.973180767E0
2.466697833E0,-2.885533682E0,1.324459249E0,-3.971397296E0,5.084534729E0
2.476775833E0,-2.554546777E0,1.407693779E0,-1.004665085E0,3.084908904E0
2.486854833E0,-2.370535485E0,1.471036667E0,7.730460557E-1,2.894993535E0
2.496933833E0,-2.409247853E0,1.411567560E0,1.519395187E0,3.178924335E0
2.507012833E0,-2.456677543E0,1.449891965E0,1.578471945E0,3.260218542E0
2.517091833E0,-2.267534735E0,1.579670332E0,8.473893097E-1,2.890526038E0
2.527170833E0,-1.877424002E0,1.639069272E0,-1.232660303E-1,2.495288255E0
2.537249833E0,-1.315146974E0,1.619181138E0,-5.195742273E-1,2.149724749E0
2.547328833E0,-6.109434038E-1,1.524756791E0,-4.973893064E-1,1.716255003E0
2.557407833E0,2.584004465E-1,1.067113348E0,-3.106526273E-1,1.141055101E0
2.567486833E0,1.115932921E0,9.674569130E-2,-4.851657021E-1,1.220676768E0
2.577565833E0,1.875500852E0,-1.022503186E0,-1.095247519E0,2.400538135E0
2.587644833E0,2.636559239E0,-1.941275597E0,-2.576072132E0,4.166070474E0
2.597723833E0,3.303068148E0,-2.344163958E0,-4.967789741E0,6.409703485E0
2.607802833E0,3.622757648E0,-2.130340637E0,-6.656953279E0,7.872594944E0
2.617880833E0,4.024735305E0,-1.571510543E0,-5.770231211E0,7.208585707E0
2.627959833E0,4.430369226E0,-1.117884137E0,-3.105700939E0,5.524781873E0
2.638038833E0,4.775438857E0,-1.183498667E0,-9.986927390E-1,5.020246265E0
2.648117833E0,5.459432988E0,-1.740473440E0,7.231924027E-2,5.730609603E0
2.658196833E0,5.914820575E0,-2.555950109E0,5.109706342E-1,6.463673443E0
2.668275833E0,6.482578783E0,-3.351107118E0,8.909180295E-1,7.351699227E0
2.678354833E0,6.215484989E0,-3.685715788E0,7.849895784E-1,7.268628698E0
2.688433833E0,5.014382694E0,-3.412584159E0,-1.669414860E0,6.291002338E0
2.698512833E0,3.831497107E0,-2.437332323E0,-7.112372441E0,8.438412212E0
2.708591833E0,3.407165252E0,-1.089174893E0,-1.162088269E1,1.215894697E1
2.718670833E0,4.366231703E0,1.463429439E-1,-1.099931197E1,1.183512819E1
2.728749833E0,4.925598571E0,-6.984616041E-2,-7.420265182E0,8.906555740E0
2.738828833E0,4.306747978E0,-1.132222095E0,-5.311118948E0,6.930944344E0
2.748906833E0,3.353430802E0,-2.633325144E0,-3.959305547E0,5.818590883E0
2.758985833E0,2.755826651E0,-4.208759168E0,-1.799356364E0,5.342837972E0
2.769064833E0,2.484720497E0,-5.330135263E0,7.609307711E-1,5.929856112E0
2.779143833E0,2.523559458E0,-5.599670269E0,2.970492555E0,6.822645051E0
2.789222833E0,2.883762268E0,-5.306476259E0,4.646927290E0,7.620282694E0
2.799301833E0,3.300668744E0,-4.564261109E0,5.387053814E0,7.794051733E0
2.809380833E0,3.487287894E0,-3.319959585E0,5.485544314E0,7.298938616E0
2.819459833E0,3.458092161E0,-2.489913994E0,5.305078189E0,6.804551983E0
2.829538833E0,3.400163503E0,-2.519428400E0,5.567259153E0,6.993068410E0
2.839617833E0,3.414364636E0,-3.392162758E0,6.487688665E0,8.078041734E0
2.849696833E0,2.532328527E0,-4.297517563E0,7.089479422E0,8.668452194E0
2.859775833E0,1.508123217E0,-5.026412755E0,6.384323341E0,8.264311547E0
2.869854833E0,7.879690272E-1,-5.421232544E0,5.255444684E0,7.591466018E0
2.879932833E0,-3.580244297E-1,-5.120987375E0,3.755561364E0,6.360576574E0
2.890011833E0,-1.408915555E0,-4.165522517E0,1.998740863E0,4.830278037E0
2.900090833E0,-2.205250486E0,-2.867630092E0,6.732111342E-1,3.679625699E0
2.910169833E0,-2.295175985E0,-1.478118230E0,-4.025223255E-2,2.730253934E0
2.920248833E0,-1.929312778E0,-2.007711661E-1,-4.807580709E-2,1.940326813E0
2.930327833E0,-1.599137467E0,8.383474678E-1,9.886690034E-1,2.058527025E0
2.940406833E0,-1.671184520E0,1.851483414E0,2.407287867E0,3.466393429E0
2.950485833E0,-2.040250539E0,2.766594883E0,4.110511912E0,5.358449187E0
2.960564833E0,-2.758270202E0,3.540529423E0,6.053708904E0,7.535966733E0
2.970643833E0,-3.666353903E0,4.360596741E0,7.428846556E0,9.361875668E0
2.980722833E0,-3.877177017E0,4.873171851E0,6.975918893E0,9.351136290E0
2.990801833E0,-4.416436481E0,5.112652754E0,7.718748000E0,1.025783603E1
3.000883583E0,-5.015063894E0,5.365831929E0,7.604606842E0,1.057227806E1
3.010962583E0,-5.701463277E0,5.611288687E0,7.435504196E0,1.092153684E1
3.021041583E0,-6.173437661E0,5.589041786E0,6.516785579E0,1.057436593E1
3.031120583E0,-6.753576179E0,5.191865569E0,3.535213427E0,9.223014326E0
3.041199583E0,-6.404960504E0,4.665001618E0,-2.501438856E-3,7.923746930E0
3.051278583E0,-4.638104426E0,4.669260730E0,-7.523466200E-2,6.581767900E0
3.061357583E0,-3.207328763E0,4.488230349E0,6.242566368E-1,5.551654331E0
3.071436583E0,-3.243018706E0,4.734125648E0,1.438783717E0,5.916013401E0
3.081515583E0,-3.148068987E0,4.974770731E0,2.318044153E0,6.327085496E0
3.091594583E0,-3.005082344E0,4.877533289E0,3.107489602E0,6.517464424E0
3.101673583E0,-2.904949653E0,4.663702367E0,2.551884247E0,6.058132177E0
3.111752583E0,-2.574439005E0,4.056041590E0,1.319918302E0,4.982107375E0
3.121831583E0,-1.755122762E0,3.073469625E0,-4.191193548E-1,3.564033176E0
3.131910583E0,-2.331255645E-1,1.609162518E0,-2.395799842E0,2.895446153E0
3.141988583E0,1.476276649E0,-7.790508538E-1,-4.348032536E0,4.657434907E0
3.152067583E0,3.416390404E0,-4.304418447E0,-6.491168343E0,8.504999001E0
3.162146583E0,5.505189790E0,-8.475012254E0,-1.011234081E1,1.429658645E1
3.172225583E0,7.158209349E0,-1.100466334E1,-1.340337480E1,1.876147735E1
3.182304583E0,7.250769019E0,-1.201925115E1,-1.325214125E1,1.930428184E1
3.192383583E0,4.877538552E0,-9.697580847E0,-8.717009214E0,1.392191460E1
3.202462583E0,1.642905630E0,-5.716077223E0,-4.733137760E0,7.601004591E0
3.212541583E0,-3.035380277E-1,-2.067399454E0,-1.720493651E0,2.706727588E0
3.222620583E0,-1.492439230E0,1.098608206E0,1.429165925E0,2.340262824E0
3.232699583E0,-2.830916010E0,3.510819721E0,3.086470909E0,5.465001668E0
3.242778583E0,-3.573540756E0,4.755832266E0,3.135689846E0,6.724632696E0
3.252857583E0,-3.539940609E0,4.465809200E0,2.568975366E0,6.250941190E0
3.262935583E0,-1.387229986E0,2.439364230E0,1.049153918E0,2.995935384E0
3.273014583E0,1.130065057E0,2.447200084E-1,1.455839461E0,1.859140514E0
3.283093583E0,2.703574762E0,-1.819704967E0,4.434657574E0,5.503347205E0
3.293172583E0,2.812742863E0,-4.553185898E0,7.684706680E0,9.364707203E0
3.303251583E0,1.539689703E0,-7.939572777E0,9.444324489E0,1.243393443E1
3.313330583E0,-8.094256774E-1,-9.298666254E0,6.879798853E0,1.159534373E1
3.323409583E0,-4.296805080E0,-6.595917703E0,2.546069484E0,8.273520052E0
3.333488583E0,-5.164974225E0,-3.323679584E0,3.194508158E0,6.923054751E0
3.343567583E0,-4.999267641E0,-1.198106182E-1,2.324745355E0,5.514659781E0
3.353646583E0,-4.911984499E0,2.620422093E0,1.000105719E0,5.656360589E0
3.363725583E0,-4.420223138E0,4.329933357E0,1.040935218E0,6.274571029E0
3.373804583E0,-3.875197735E0,5.134876267E0,1.971141859E0,6.728262182E0
3.383883583E0,-2.927949091E0,5.002287143E0,2.935020422E0,6.496930616E0
3.393962583E0,-1.947792903E0,4.084067879E0,2.880023850E0,5.363585090E0
3.404040583E0,-6.245390573E-1,2.747986704E0,3.159089234E0,4.233358566E0
3.414119583E0,1.036084514E0,1.510343404E0,3.799773331E0,4.218161410E0
3.424198583E0,2.088091580E0,3.212302405E-1,4.635051010E0,5.093821079E0
3.434277583E0,2.786321050E0,-7.182672930E-1,6.167663535E0,6.805847955E0
3.444356583E0,3.767541724E0,-1.296675035E0,7.626750832E0,8.604828008E0
3.454435583E0,4.339174297E0,-1.431559775E0,8.108107658E0,9.306944008E0
3.464514583E0,3.841117238E0,-1.252985224E0,6.955664138E0,8.043967753E0
3.474593583E0,2.806666144E0,-5.879562449E-1,4.455670128E0,5.298685090E0
3.484672583E0,1.862162769E0,3.800351036E-1,1.999315059E0,2.758502776E0
3.494751583E0,7.237899882E-1,1.257806253E0,-5.561476842E-2,1.452253945E0
3.504830583E0,-2.994511163E-1,2.163573287E0,-2.265782471E0,3.147140058E0
3.514909583E0,-1.302368176E0,2.588626689E0,-6.316715494E0,6.949679535E0
3.524988583E0,-1.746492856E0,2.543823568E0,-6.916971357E0,7.574019303E0
3.535066583E0,-1.795538424E0,2.053976585E0,-4.222160987E0,5.026869945E0
3.545145583E0,-1.763598593E0,1.638864620E0,-1.416672764E0,2.793406336E0
3.555224583E0,-1.831659891E0,1.248191092E0,5.696532905E-1,2.288550596E0
3.565303583E0,-1.896400263E0,9.358316624E-1,1.621655679E0,2.664935647E0
3.575382583E0,-1.925823452E0,9.413239521E-1,1.436758827E0,2.580535347E0
3.585461583E0,-1.939935122E0,1.141844273E0,3.055290046E-1,2.271674403E0
3.595540583E0,-1.780206440E0,1.387001068E0,-5.102014330E-1,2.313701025E0
3.605619583E0,-1.445810609E0,1.584592518E0,-1.082368442E0,2.402670017E0
3.615698583E0,-9.492127231E-1,1.685530663E0,-1.408211843E0,2.392713732E0
3.625777583E0,-3.991496515E-1,1.639473900E0,-1.463219524E0,2.233429311E0
3.635856583E0,3.882235444E-1,1.214370797E0,-1.508756178E0,1.975287107E0
3.645935583E0,1.212194463E0,3.354927689E-1,-1.845199412E0,2.233099121E0
3.656014583E0,2.169124049E0,-5.245771050E-1,-2.586649160E0,3.416289531E0
3.666092583E0,3.070369723E0,-1.192984605E0,-3.756849798E0,4.996429016E0
3.676171583E0,4.028334851E0,-1.360816067E0,-5.076256760E0,6.621758432E0
3.686250583E0,4.893259960E0,-1.074235257E0,-5.937449884E0,7.768608985E0
3.696329583E0,5.496941122E0,-6.888400108E-1,-5.546588661E0,7.839356354E0
3.706408583E0,5.839705489E0,-6.857064879E-1,-3.782371140E0,6.991329274E0
3.716487583E0,6.071568639E0,-1.088193730E0,-1.867910874E0,6.444936180E0
3.726566583E0,6.233532420E0,-1.720710436E0,-4.903767407E-1,6.485232469E0
3.736645583E0,6.347133880E0,-2.454951738E0,3.447152898E-1,6.814082855E0
3.746724583E0,6.444651988E0,-3.010258884E0,1.495127195E-1,7.114601314E0
3.756803583E0,5.851596386E0,-3.320349594E0,-2.088359967E0,7.044653934E0
3.766882583E0,4.728776322E0,-3.033571733E0,-5.859811140E0,8.117959692E0
3.776961583E0,4.077655238E0,-1.924719205E0,-9.389624956E0,1.041618323E1
3.787039583E0,4.439652558E0,-6.126607311E-1,-9.702186699E0,1.068729595E1
3.797118583E0,4.833314890E0,-9.852435583E-1,-7.576860634E0,9.041042792E0
3.807197583E0,4.191678867E0,-2.563594759E0,-5.950095073E0,7.716593885E0
3.817276583E0,3.654082936E0,-4.522262313E0,-3.359760997E0,6.714996090E0
3.827355583E0,3.210564905E0,-5.797235992E0,8.248608649E-2,6.627403421E0
3.837434583E0,2.664000222E0,-6.392394837E0,2.977814439E0,7.538367713E0
3.847513583E0,2.133511290E0,-6.357502747E0,5.646426360E0,8.766518251E0
3.857592583E0,2.178747396E0,-5.182736896E0,6.463666549E0,8.566603014E0
3.867671583E0,2.982619973E0,-3.745225825E0,6.117127805E0,7.768010747E0
3.877750583E0,3.584256656E0,-2.829008063E0,5.420961233E0,7.087806648E0
3.887829583E0,4.014339540E0,-2.775807756E0,5.014924146E0,6.997820720E0
3.897908583E0,4.049258527E0,-3.380589364E0,5.551864019E0,7.658202998E0
3.907987583E0,3.437722508E0,-3.983120964E0,5.944626172E0,7.938625132E0
3.918065583E0,2.511024489E0,-4.681627591E0,5.690298604E0,7.784752988E0
3.928144583E0,1.507167197E0,-5.089298975E0,5.096705643E0,7.358595343E0
3.938223583E0,4.563295734E-1,-4.849899933E0,3.944289604E0,6.267949148E0
3.948302583E0,-5.491511983E-1,-4.067980435E0,2.647529200E0,4.884612853E0
3.958381583E0,-1.231603418E0,-2.976922154E0,1.518765149E0,3.561679389E0
3.968460583E0,-1.397175223E0,-1.560111396E0,1.032383226E0,2.334922118E0
3.978539583E0,-1.395356739E0,-3.153543735E-1,1.000704035E0,1.745817108E0
3.988618583E0,-1.496300731E0,7.919299310E-1,1.584520451E0,2.318787173E0
3.998698208E0,-1.728363272E0,1.911334344E0,2.821618352E0,3.821252242E0
4.008777208E0,-1.978631119E0,3.065337317E0,4.143393437E0,5.520777404E0
4.018856208E0,-2.273900891E0,4.124950442E0,5.088222502E0,6.933675046E0
4.028935208E0,-2.546543693E0,4.623301615E0,5.117954425E0,7.352092226E0
4.039014208E0,-2.716126395E0,5.000949885E0,4.943058357E0,7.537948545E0
4.049093208E0,-3.399831381E0,5.800729703E0,5.708206286E0,8.819917093E0
4.059171208E0,-4.158004752E0,6.009926122E0,6.034579153E0,9.477571475E0
4.069250208E0,-4.245011321E0,5.863024185E0,5.969558115E0,9.382472904E0
4.079329208E0,-4.647960785E0,5.702999341E0,5.768209244E0,9.348795582E0
4.089408208E0,-4.849233935E0,5.468113180E0,5.923194373E0,9.407420639E0
4.099487208E0,-5.591070185E0,5.126202507E0,5.921706841E0,9.623129941E0
4.109566208E0,-5.965330578E0,4.576545525E0,5.303887696E0,9.201150066E0
4.119645208E0,-6.221740340E0,4.199873739E0,4.510407376E0,8.757440664E0
4.129724208E0,-6.495020489E0,3.898526371E0,3.990686968E0,8.562089785E0
4.139803208E0,-6.702006075E0,3.741963664E0,3.312877730E0,8.360283270E0
4.149882208E0,-6.629393013E0,3.750998781E0,2.599972918E0,8.048521774E0
4.159961208E0,-6.074672341E0,3.606758496E0,1.492778076E0,7.220715843E0
4.170040208E0,-4.990275793E0,3.325858256E0,-1.072323071E0,6.092131187E0
4.180119208E0,-3.606445378E0,2.694632615E0,-4.649486324E0,6.471878883E0
4.190198208E0,-1.941118891E0,1.270653756E0,-6.878951592E0,7.259647272E0
4.200276208E0,-1.522071165E-1,-1.356190335E0,-7.073533480E0,7.203977729E0
4.210355208E0,2.138086444E0,-5.577863079E0,-6.906165118E0,9.131214969E0
4.220434208E0,4.660247247E0,-1.050066610E1,-9.801152578E0,1.510114184E1
4.230513208E0,6.831495590E0,-1.277470674E1,-1.431412074E1,2.036557185E1
4.240592208E0,9.420073746E0,-1.318553795E1,-1.433111509E1,2.163277745E1
4.250671208E0,9.458044395E0,-9.045428606E0,-8.710053366E0,1.572066831E1
4.260750208E0,6.013365455E0,-3.786551022E0,-3.703278193E0,8.013289094E0
4.270829208E0,2.435965536E0,3.580478185E-1,-3.158224431E-1,2.482311453E0
4.280908208E0,2.502915278E-1,3.680162103E0,2.261837208E0,4.326909579E0
4.290987208E0,-1.463145557E0,6.323985922E0,4.506159081E0,7.901839187E0
4.301066208E0,-2.769636605E0,7.916517205E0,3.773633645E0,9.196871342E0
4.311145208E0,-2.949204597E0,7.807949613E0,1.936808031E0,8.568145089E0
4.321224208E0,-1.568439000E0,6.050363712E0,8.422190554E-1,6.306840325E0
4.331303208E0,-1.808178350E-1,3.341295490E0,3.071161144E0,4.541913849E0
4.341381208E0,2.748077336E-1,-3.376533151E-2,6.116072967E0,6.122336803E0
4.351460208E0,-1.440370944E-1,-3.928926045E0,8.040447772E0,8.950195915E0
4.361539208E0,5.478601331E-1,-9.544156925E0,1.198418774E1,1.533009582E1
4.371618208E0,5.082984567E-3,-1.223491518E1,8.011833837E0,1.462472757E1
4.381697208E0,-2.783807040E0,-1.149180306E1,1.605985580E0,1.193274105E1
4.391776208E0,-5.547428906E0,-8.505673884E0,3.718541472E0,1.081425015E1
4.401855208E0,-6.126341262E0,-4.606266337E0,3.713205303E0,8.516903220E0
4.411934208E0,-5.957069632E0,-7.564917111E-1,1.793953683E0,6.267154707E0
4.422013208E0,-5.219848005E0,1.567404628E0,1.666081070E0,5.699069800E0
4.432092208E0,-4.349180345E0,2.892720494E0,1.935720596E0,5.570477157E0
4.442171208E0,-3.318539881E0,3.787923948E0,2.114440888E0,5.461861867E0
4.452250208E0,-2.231320297E0,4.135516360E0,1.794298815E0,5.029989470E0
4.462329208E0,-8.992970896E-1,3.792399992E0,1.824006178E0,4.303258241E0
4.472407208E0,4.965850219E-1,3.166831532E0,1.977991433E0,3.766678742E0
4.482486208E0,1.732339671E0,2.228560411E0,2.909664556E0,4.053841397E0
4.492565208E0,2.914451087E0,1.265037505E0,4.696495306E0,5.670221617E0
4.502644208E0,4.120181453E0,5.548972571E-1,6.056275247E0,7.345901989E0
4.512723208E0,5.259757590E0,1.488350272E-1,7.200746673E0,8.918405375E0
4.522802208E0,5.137425653E0,2.660646844E-1,6.933353502E0,8.633384246E0
4.532881208E0,3.668620576E0,8.479409945E-1,4.428751009E0,5.813055682E0
4.542960208E0,1.869018337E0,1.361772087E0,1.997281982E0,3.055615826E0
4.553039208E0,3.846704838E-1,1.963369301E0,-6.817414910E-3,2.000709092E0
4.563118208E0,-9.961275655E-1,2.480514010E0,-3.564205384E0,4.455196954E0
4.573197208E0,-1.825455703E0,2.790636295E0,-6.684237556E0,7.469870894E0
4.583276208E0,-1.813870615E0,2.634333204E0,-5.316831093E0,6.204718439E0
4.593355208E0,-1.496358619E0,2.043504222E0,-2.458396040E0,3.529689747E0
4.603434208E0,-1.351469000E0,1.411128434E0,-2.904167296E-1,1.975371811E0
4.613512208E0,-1.426691675E0,9.733199161E-1,1.259656020E0,2.137646857E0
4.623591208E0,-1.668536608E0,8.566498375E-1,1.787253212E0,2.590779304E0
4.633670208E0,-1.813440844E0,1.041335313E0,9.440893927E-1,2.294395718E0
4.643749208E0,-1.636382184E0,1.350940704E0,-1.803035724E-1,2.129623633E0
4.653828208E0,-1.156806420E0,1.585483049E0,-1.012086664E0,2.208229383E0
4.663907208E0,-6.292299861E-1,1.738422822E0,-1.463522995E0,2.357953315E0
4.673986208E0,-3.101538599E-2,1.694054149E0,-1.654667889E0,2.368270939E0
4.684065208E0,6.565926164E-1,1.196005277E0,-1.961198230E0,2.389108826E0
4.694144208E0,1.436386944E0,2.239980608E-1,-2.471626827E0,2.867459111E0
4.704223208E0,2.290661058E0,-9.506958693E-1,-3.033799190E0,3.918531388E0
4.714302208E0,3.136564882E0,-1.969962621E0,-3.657594189E0,5.205457448E0
4.724381208E0,3.778505253E0,-2.316328872E0,-4.393743437E0,6.240790237E0
4.734460208E0,4.001681780E0,-1.805001558E0,-4.802150985E0,6.506315530E0
4.744539208E0,4.151755248E0,-1.206122130E0,-4.230182197E0,6.048656351E0
4.754617208E0,4.444000255E0,-1.105571655E0,-3.182020259E0,5.576439714E0
4.764696208E0,4.780736142E0,-1.530615701E0,-2.064987477E0,5.427927392E0
4.774775208E0,5.072940220E0,-2.197081926E0,-9.540784836E-1,5.610005099E0
4.784854208E0,5.313499349E0,-2.701928771E0,-6.190827280E-2,5.961336013E0
4.794933208E0,5.530824568E0,-3.058651611E0,2.325455207E-1,6.324511641E0
4.805012208E0,5.370253009E0,-3.008391284E0,-1.274645650E0,6.286076442E0
4.815091208E0,4.959409511E0,-2.570117912E0,-4.606056422E0,7.239958877E0
4.825170208E0,4.933558971E0,-1.599466081E0,-8.174028583E0,9.680549526E0
4.835249208E0,5.327954836E0,-4.801294953E-1,-9.633574301E0,1.101922778E1
4.845328208E0,5.418176789E0,-5.460591906E-1,-8.327139094E0,9.949676670E0
4.855407208E0,4.806535227E0,-1.993789440E0,-6.559131700E0,8.372585376E0
4.865486208E0,4.284904534E0,-3.833732790E0,-4.046422920E0,7.030750488E0
4.875565208E0,3.718906923E0,-5.185756398E0,-5.788655788E-1,6.407606689E0
4.885644208E0,3.085691475E0,-5.582869465E0,2.244677677E0,6.762285206E0
4.895723208E0,2.530758257E0,-5.694916735E0,4.607682825E0,7.750326121E0
4.905801208E0,2.476050538E0,-4.897981002E0,5.669439247E0,7.890727821E0
4.915880208E0,2.823532730E0,-3.339570562E0,5.569498637E0,7.081269920E0
4.925959208E0,2.953782967E0,-2.423660363E0,5.329852257E0,6.557917997E0
4.936038208E0,3.137815894E0,-2.378502316E0,5.424844953E0,6.703141400E0
4.946117208E0,3.129213178E0,-2.798020744E0,5.968213840E0,7.296606858E0
4.956196208E0,2.636354294E0,-3.456211404E0,6.149434841E0,7.530691210E0
4.966275208E0,1.958042195E0,-4.187788129E0,5.585818800E0,7.250715160E0
4.976354208E0,1.154960454E0,-4.765807031E0,4.622034523E0,6.738698201E0
4.986433208E0,1.938533252E-1,-4.724493529E0,2.922871077E0,5.558920179E0
4.996508125E0,-6.408513272E-1,-4.052549633E0,1.298379206E0,4.303444842E0
5.006587125E0,-1.124686495E0,-3.107501004E0,-1.560497604E-2,3.304803431E0
5.016666125E0,-1.213980203E0,-1.813959492E0,-8.750358224E-1,2.351570680E0
5.026745125E0,-1.125893068E0,-6.274512631E-1,-6.512672648E-2,1.290570331E0
5.036824125E0,-1.306125889E0,3.047720826E-1,1.540009399E0,2.042175265E0
5.046903125E0,-1.648856927E0,1.199238787E0,3.074344953E0,3.688970008E0
5.056981125E0,-1.948771727E0,2.096101096E0,4.952586980E0,5.720093430E0
5.067060125E0,-2.406171341E0,3.063866158E0,6.644878778E0,7.702684619E0
5.077139125E0,-2.379405127E0,3.924538295E0,6.959135045E0,8.336253964E0
5.087218125E0,-2.927710233E0,4.182751923E0,7.859005162E0,9.371812150E0
5.097297125E0,-3.659261815E0,4.449432319E0,8.371294928E0,1.016199900E1
5.107376125E0,-4.448718958E0,4.899437544E0,8.349329277E0,1.065396114E1
5.117455125E0,-5.054729651E0,4.965140952E0,7.622816826E0,1.040722119E1
5.127534125E0,-5.370888602E0,4.865761090E0,5.822733945E0,9.296574958E0
5.137613125E0,-5.712989309E0,4.779517583E0,2.652608092E0,7.906855560E0
5.147692125E0,-5.706017089E0,4.331012169E0,-5.722555938E-1,7.186360267E0
5.157771125E0,-5.514935929E0,4.011233207E0,-1.226137733E-1,6.820523754E0
5.167850125E0,-5.694529649E0,4.044127888E0,1.149920447E0,7.078485384E0
5.177929125E0,-5.729405951E0,4.316404654E0,2.315501199E0,7.537837057E0
5.188008125E0,-5.549544429E0,4.283084296E0,3.618872465E0,7.889137619E0
5.198087125E0,-5.380410792E0,4.168497580E0,3.878885866E0,7.833961190E0
5.208165125E0,-5.005965627E0,4.034923786E0,3.097486770E0,7.136856879E0
5.218244125E0,-4.226758068E0,3.741245041E0,1.652373442E0,5.881558995E0
5.228323125E0,-2.831796308E0,3.145422537E0,-4.515015274E-1,4.256360757E0
5.238402125E0,-1.087592052E0,2.001820591E0,-2.701103729E0,3.533568098E0
5.248481125E0,6.546580651E-1,1.264138788E-1,-4.397142716E0,4.447406178E0
5.258560125E0,2.463205959E0,-2.588385199E0,-5.439615605E0,6.508190184E0
5.268639125E0,4.437324197E0,-6.059223413E0,-7.341436529E0,1.050241518E1
5.278718125E0,6.233750521E0,-9.440807973E0,-1.030258348E1,1.530136357E1
5.288797125E0,6.904082340E0,-1.147997415E1,-1.124948626E1,1.749305864E1
5.298876125E0,6.104454550E0,-1.032208745E1,-8.825670946E0,1.488967167E1
5.308955125E0,4.043898385E0,-6.767745736E0,-5.442348593E0,9.579908909E0
5.319034125E0,1.850013424E0,-3.094501474E0,-3.020034552E0,4.703094486E0
5.329113125E0,2.320195636E-1,1.526819104E-1,-6.754760532E-1,7.303511088E-1
5.339192125E0,-1.032347266E0,2.860634483E0,9.108092339E-1,3.174672264E0
5.349271125E0,-2.367181815E0,4.496936268E0,1.633572890E0,5.338028281E0
5.359349125E0,-3.114727286E0,4.936866741E0,1.227704203E0,5.965017761E0
5.369428125E0,-2.712807223E0,3.833419964E0,2.203803885E-1,4.701382687E0
5.379507125E0,-1.430271633E0,2.198897486E0,7.945582545E-1,2.740830152E0
5.389586125E0,-2.609597728E-1,5.170289344E-1,3.797131851E0,3.841045329E0
5.399665125E0,-6.562505543E-2,-1.563341982E0,6.964726152E0,7.138329999E0
5.409744125E0,-8.674291795E-1,-4.946493596E0,8.660667783E0,1.001136348E1
5.419823125E0,-1.631419068E0,-8.289496474E0,9.602188786E0,1.278981272E1
5.429902125E0,-2.163709235E0,-1.000401529E1,6.211894798E0,1.197286919E1
5.439981125E0,-4.024165494E0,-8.100164216E0,2.729660361E0,9.447624777E0
5.450060125E0,-4.890864941E0,-4.884574506E0,3.323926921E0,7.669949032E0
5.460139125E0,-4.952527338E0,-1.325310019E0,1.921593723E0,5.475079554E0
5.470218125E0,-4.655244370E0,1.358278960E0,1.037046965E0,4.959000734E0
5.480297125E0,-3.801422830E0,3.075472881E0,1.474885304E0,5.107311977E0
5.490376125E0,-2.399288876E0,3.897813596E0,2.645025423E0,5.286369021E0
5.500455125E0,-8.200953841E-1,4.178937784E0,2.763936739E0,5.076950240E0
5.510534125E0,6.085401982E-1,3.670139390E0,2.721482445E0,4.609415474E0
5.520612125E0,1.809943625E0,2.847091162E0,2.463069427E0,4.177144361E0
5.530691125E0,2.926546052E0,2.173556823E0,2.448274217E0,4.391248991E0
5.540770125E0,3.659248366E0,1.615510840E0,2.635669878E0,4.790274479E0
5.550849125E0,4.205572436E0,7.764336401E-1,3.663030345E0,5.630939533E0
5.560928125E0,4.676673245E0,3.507580948E-1,4.012308510E0,6.171946489E0
5.571007125E0,4.286038894E0,-2.570903778E-2,3.238951675E0,5.372299164E0
5.581086125E0,2.858791148E0,-4.036099076E-2,1.364126760E0,3.167831697E0
5.591165125E0,1.183353364E0,3.113811904E-1,-9.740783000E-1,1.564005104E0
5.601244125E0,-2.082120404E-1,9.793022025E-1,-2.083442459E0,2.311518449E0
5.611323125E0,-1.071576528E0,1.840926851E0,-1.695546944E0,2.722529589E0
5.621402125E0,-1.533853597E0,2.621976283E0,-7.777505793E-1,3.135659811E0
5.631481125E0,-2.010252276E0,2.967818624E0,8.643865809E-2,3.585600820E0
5.641560125E0,-2.401049472E0,2.901622295E0,6.810667223E-1,3.827310073E0
5.651639125E0,-2.604638996E0,2.575548806E0,8.167952156E-1,3.752965545E0
5.661718125E0,-2.541082686E0,2.022457754E0,5.622127086E-1,3.295985393E0
5.671797125E0,-2.134287508E0,1.578457035E0,-2.756886166E-1,2.668841320E0
5.681876125E0,-1.486807192E0,1.373578200E0,-1.168021088E0,2.337003628E0
5.691954125E0,-8.855061391E-1,1.247837920E0,-1.158290151E0,1.919077037E0
5.702033125E0,-4.811855024E-1,1.103144476E0,-7.684890282E-1,1.427950492E0
5.712112125E0,-9.341511726E-2,9.549362701E-1,-3.527724606E-1,1.022290601E0
5.722191125E0,3.701240730E-1,8.144352794E-1,-1.547287282E-1,9.078753400E-1
5.732270125E0,8.817089573E-1,6.137921673E-1,-4.779324040E-1,1.175827748E0
5.742349125E0,1.402704935E0,1.014322346E-1,-1.385102769E0,1.973924850E0
5.752428125E0,1.777409424E0,-5.482770395E-1,-2.630628993E0,3.221800874E0
5.762507125E0,2.016917225E0,-1.105333673E0,-3.800896288E0,4.442581481E0
5.772586125E0,2.215862890E0,-1.317271852E0,-4.530313052E0,5.212388112E0
5.782665125E0,2.436380104E0,-9.504701668E-1,-4.339496478E0,5.066613389E0
5.792744125E0,2.726744062E0,-2.588270009E-1,-3.424025406E0,4.384754791E0
5.802823125E0,3.130296959E0,1.435772109E-1,-2.662582857E0,4.112021515E0
5.812902125E0,3.700146716E0,3.190708637E-2,-2.252496866E0,4.331956361E0
5.822981125E0,4.376598231E0,-4.591923702E-1,-1.699806640E0,4.717500644E0
5.833060125E0,4.908228832E0,-1.139099005E0,-7.862078458E-1,5.099645046E0
5.843139125E0,5.555919063E0,-1.849677794E0,-2.628206491E-2,5.855786482E0
5.853217125E0,6.246711459E0,-2.302870336E0,-1.337047720E-1,6.659015904E0
5.863296125E0,6.629623393E0,-2.347144284E0,-1.573508244E0,7.206727469E0
5.873375125E0,6.412732038E0,-1.851341327E0,-4.683663592E0,8.153974585E0
5.883454125E0,6.096546775E0,-1.090180029E0,-8.055081598E0,1.016074380E1
5.893533125E0,5.885544151E0,-5.904506671E-1,-9.328011090E0,1.104536341E1
5.903612125E0,5.875799766E0,-1.191925090E0,-7.291466809E0,9.439872697E0
5.913691125E0,5.635275135E0,-2.358246977E0,-5.161510334E0,7.997427310E0
5.923770125E0,5.513640186E0,-3.686471248E0,-3.327186744E0,7.420274253E0
5.933849125E0,5.495641286E0,-4.935807810E0,-8.046637049E-1,7.430461329E0
5.943928125E0,5.311829969E0,-5.506479101E0,1.742689827E0,7.846898594E0
5.954007125E0,4.580664011E0,-5.654276832E0,3.618320196E0,8.126842579E0
5.964086125E0,3.492822868E0,-5.239032719E0,5.281399305E0,8.218299948E0
5.974165125E0,2.705971244E0,-4.102305930E0,5.381931653E0,7.288098698E0
5.984244125E0,2.496495035E0,-3.340295616E0,5.004523703E0,6.514239769E0
5.994323250E0,2.571826469E0,-3.244442795E0,4.700121165E0,6.263532502E0
6.004402250E0,2.486917004E0,-3.393201224E0,4.804232594E0,6.385861065E0
6.014481250E0,1.982704581E0,-3.598960065E0,4.986928847E0,6.461663124E0
6.024560250E0,9.675235713E-1,-3.852706420E0,4.701016374E0,6.154592071E0
6.034638250E0,-1.187157270E-1,-3.898315871E0,3.859219049E0,5.486759674E0
6.044717250E0,-1.317035624E0,-3.637710732E0,2.471481231E0,4.590832352E0
6.054796250E0,-2.138814714E0,-2.884927325E0,7.073483486E-1,3.660283560E0
6.064875250E0,-2.300654826E0,-2.030538021E0,-6.940938071E-1,3.146087014E0
6.074954250E0,-1.900294509E0,-1.226403197E0,-1.442622707E0,2.682600286E0
6.085033250E0,-1.282006710E0,-4.590134454E-1,-7.486586349E-1,1.553938319E0
6.095112250E0,-7.506749010E-1,2.798243523E-1,7.260136843E-1,1.081161572E0
6.105191250E0,-4.627667731E-1,9.702203071E-1,2.026826063E0,2.294232861E0
6.115270250E0,-4.338265640E-1,1.678736783E0,3.444988843E0,3.856722806E0
6.125349250E0,-5.399248767E-1,2.378987635E0,4.733711665E0,5.325328832E0
6.135428250E0,-5.534372073E-1,3.190603387E0,5.566439958E0,6.439836685E0
6.145507250E0,-8.206532085E-1,3.956293353E0,6.197536376E0,7.398323183E0
6.155586250E0,-1.322323846E0,4.509732315E0,6.689128168E0,8.175002235E0
6.165665250E0,-1.958083418E0,4.905408136E0,7.015525593E0,8.781498676E0
6.175744250E0,-2.619078988E0,5.261388963E0,7.160066425E0,9.263279105E0
6.185823250E0,-3.235063861E0,5.503409312E0,6.969882227E0,9.451582434E0
6.195902250E0,-3.922267236E0,5.426880369E0,6.464922531E0,9.307547160E0
6.205980250E0,-4.640020559E0,5.123471857E0,5.674995271E0,8.943451570E0
6.216059250E0,-5.174391750E0,4.704534059E0,4.820812374E0,8.493950944E0
6.226138250E0,-5.513942487E0,4.295213175E0,4.103432688E0,8.104972412E0
6.236217250E0,-5.860156710E0,3.893013031E0,3.396944903E0,7.812568195E0
6.246296250E0,-6.200138386E0,3.639396484E0,2.778339601E0,7.707534867E0
6.256375250E0,-6.189832084E0,3.448721121E0,2.415920111E0,7.486278687E0
6.266454250E0,-6.038455857E0,3.443278533E0,1.743414005E0,7.166492070E0
6.276533250E0,-5.684197619E0,3.344099230E0,4.637523213E-1,6.611215353E0
6.286612250E0,-5.101448904E0,2.966998844E0,-1.748222755E0,6.155009819E0
6.296691250E0,-4.128411701E0,2.197375456E0,-3.464731674E0,5.820361470E0
6.306770250E0,-2.692270925E0,9.572932827E-1,-3.980899314E0,4.900233924E0
6.316849250E0,-1.061721046E0,-1.047026408E0,-3.914393960E0,4.188794093E0
6.326928250E0,7.307990456E-1,-4.124179779E0,-4.199617339E0,5.931248763E0
6.337007250E0,2.821100873E0,-8.038555028E0,-7.031051120E0,1.104593395E1
6.347086250E0,4.973007796E0,-1.116253115E1,-1.122700138E1,1.659453127E1
6.357165250E0,6.830774628E0,-1.209174259E1,-1.227371730E1,1.853412683E1
6.367243250E0,6.890865294E0,-8.987861014E0,-9.635400971E0,1.486965440E1
6.377322250E0,4.635663214E0,-4.050229458E0,-5.786070149E0,8.448215188E0
6.387401250E0,2.162585400E0,1.461850691E-1,-2.366354141E0,3.209015053E0
6.397480250E0,8.131173170E-1,3.295562078E0,5.484735060E-1,3.438417131E0
6.407559250E0,2.290827996E-1,5.093939325E0,2.660607083E0,5.751480403E0
6.417638250E0,3.760300532E-1,5.078974546E0,3.540416572E0,6.202574509E0
6.427717250E0,1.196030712E0,2.616559423E0,2.521771087E0,3.825728962E0
6.437796250E0,2.254860018E0,-1.377767730E-1,2.417973361E0,3.309074087E0
6.447875250E0,3.064071395E0,-2.457906920E0,5.198816739E0,6.515944707E0
6.457954250E0,2.728471622E0,-5.238301817E0,8.325348676E0,1.020763410E1
6.468033250E0,9.348785663E-1,-8.343418327E0,1.139631101E1,1.415494726E1
6.478112250E0,-1.974081985E0,-9.368661518E0,1.034576283E1,1.409622740E1
6.488191250E0,-5.915928038E0,-7.482853194E0,5.913332459E0,1.122313669E1
6.498270250E0,-7.364195647E0,-4.101504276E0,3.532049206E0,9.139424842E0
6.508349250E0,-7.073724099E0,-1.029196494E0,1.152437088E0,7.240506149E0
6.518428250E0,-6.700600405E0,1.289026877E0,-4.228693204E-1,6.836552825E0
6.528507250E0,-6.163724266E0,3.106802262E0,-4.635369976E-1,6.917989858E0
6.538586250E0,-5.493353856E0,4.449415362E0,1.028452655E0,7.143664921E0
6.548665250E0,-4.957340181E0,4.810003796E0,2.151969488E0,7.234799988E0
6.558743250E0,-4.113379971E0,4.335286483E0,2.367839334E0,6.428162007E0
6.568822250E0,-2.921541420E0,3.393114685E0,2.818426942E0,5.290761945E0
6.578901250E0,-1.388750555E0,2.196946855E0,3.373061074E0,4.258256051E0
6.588980250E0,1.271710932E-2,9.658828425E-1,3.671356196E0,3.796307114E0
6.599059250E0,1.303930845E0,-2.768411028E-1,4.598604146E0,4.787905255E0
6.609138250E0,2.639374089E0,-1.088190222E0,5.343558131E0,6.058388155E0
6.619217250E0,3.947322555E0,-9.265749353E-1,5.557615340E0,6.879461079E0
6.629296250E0,4.680149415E0,-2.352171135E-1,4.831253747E0,6.730537750E0
6.639375250E0,4.655472411E0,4.852610117E-1,3.373200822E0,5.769522113E0
6.649454250E0,3.763936915E0,1.383048350E0,1.322015844E0,4.222294369E0
6.659533250E0,2.406453177E0,1.988336912E0,-1.332057560E0,3.393947246E0
6.669612250E0,1.163556154E0,2.587934378E0,-4.574842815E0,5.383349706E0
6.679691250E0,2.395686114E-1,2.661849616E0,-4.779862568E0,5.476305568E0
6.689770250E0,-4.083484912E-1,2.435296907E0,-3.249267333E0,4.081073108E0
6.699849250E0,-8.745358855E-1,2.127945617E0,-1.732989735E0,2.880315779E0
6.709928250E0,-1.182453770E0,1.701487715E0,-2.186192071E-1,2.083519071E0
6.720006250E0,-1.498194352E0,1.291801381E0,7.873550695E-1,2.129146573E0
6.730085250E0,-1.891816046E0,1.043064920E0,9.808096147E-1,2.372538699E0
6.740164250E0,-2.149173057E0,1.270792919E0,2.659977338E-1,2.510899095E0
6.750243250E0,-2.119331499E0,1.620265211E0,-2.821454045E-1,2.682616519E0
6.760322250E0,-1.948675833E0,1.790808612E0,-7.457188010E-1,2.749623522E0
6.770401250E0,-1.526814134E0,1.731593274E0,-1.241604204E0,2.621289313E0
6.780480250E0,-7.559596145E-1,1.301489047E0,-1.785094712E0,2.334932935E0
6.790559250E0,1.717619598E-1,3.352419233E-1,-2.305823765E0,2.336388784E0
6.800638250E0,1.137476987E0,-7.694292605E-1,-2.786506991E0,3.106524826E0
6.810717250E0,2.052485253E0,-1.727504901E0,-3.380964171E0,4.316003663E0
6.820796250E0,2.933338470E0,-2.056924751E0,-3.960520013E0,5.340518026E0
6.830875250E0,3.701479004E0,-1.508743021E0,-4.245853904E0,5.831340129E0
6.840954250E0,4.374412542E0,-7.196057206E-1,-3.855896661E0,5.875479260E0
6.851033250E0,5.098042316E0,-5.081242096E-1,-3.143005883E0,6.010550029E0
6.861112250E0,5.756124219E0,-9.322560900E-1,-2.748125575E0,6.446259506E0
6.871191250E0,6.344758741E0,-1.508027907E0,-2.197122856E0,6.881675704E0
6.881270250E0,6.710422558E0,-1.970760182E0,-1.460994951E0,7.144800406E0
6.891349250E0,6.822338265E0,-2.338274642E0,-9.909934178E-1,7.279690629E0
6.901427250E0,6.291456692E0,-2.575040098E0,-1.588016940E0,6.981049822E0
6.911506250E0,5.413777344E0,-2.452591801E0,-3.639062024E0,6.969000221E0
6.921585250E0,4.852319218E0,-1.869682873E0,-6.637025968E0,8.431537792E0
6.931664250E0,5.037918906E0,-1.091200953E0,-8.631035264E0,1.005316448E1
6.941743250E0,5.631549289E0,-9.495778817E-1,-7.958945771E0,9.795961583E0
6.951822250E0,5.792358245E0,-1.846204548E0,-5.276881161E0,8.050177641E0
6.961901250E0,5.744296471E0,-3.106688241E0,-3.249235758E0,7.294243400E0
6.971980250E0,5.692474353E0,-4.333227094E0,-1.942630981E0,7.413159679E0
6.982059250E0,5.001622900E0,-4.896777645E0,-1.150123930E-1,7.000563605E0
6.992138250E0,3.798525243E0,-5.070113676E0,1.260451534E0,6.459379596E0
7.002220750E0,2.280471700E0,-5.244366549E0,1.367799981E0,5.880034733E0
7.012299750E0,1.413573155E0,-4.776675836E0,1.314160548E0,5.151877236E0
7.022378750E0,1.495803426E0,-4.326413918E0,1.716274738E0,4.888853061E0
7.032457750E0,1.850191764E0,-4.161454024E0,2.843664694E0,5.369109614E0
7.042536750E0,1.985221223E0,-4.532947515E0,4.301590149E0,6.556858569E0
7.052615750E0,1.834126539E0,-5.783333652E0,6.419566848E0,8.832995348E0
7.062693750E0,9.680264318E-1,-6.968185365E0,8.927519503E0,1.136632249E1
7.072772750E0,-7.066184700E-2,-7.176870153E0,8.576984187E0,1.118378809E1
7.082851750E0,-1.120555730E0,-6.848867083E0,6.132003121E0,9.260890224E0
7.092930750E0,-1.782872186E0,-5.525667323E0,3.840686299E0,6.961501551E0
7.103009750E0,-2.045118638E0,-3.772245809E0,1.931418360E0,4.705605760E0
7.113088750E0,-1.791062965E0,-1.872076138E0,6.310189417E-1,2.666600930E0
7.123167750E0,-1.585128123E0,-2.557010794E-1,-3.580469415E-2,1.606018737E0
7.133246750E0,-1.626966705E0,1.004628832E0,-1.477404284E-1,1.917844359E0
7.143325750E0,-1.905276044E0,2.000136593E0,8.482852493E-1,2.889673175E0
7.153404750E0,-2.253844357E0,2.700844113E0,2.724973817E0,4.449702868E0
7.163483750E0,-2.800136266E0,3.136612537E0,4.386418338E0,6.076163851E0
7.173562750E0,-3.073785374E0,3.491508121E0,5.636332312E0,7.308011181E0
7.183641750E0,-3.438931128E0,3.816392287E0,6.408185828E0,8.213156701E0
7.193720750E0,-3.245742046E0,3.992150819E0,6.883170358E0,8.593610636E0
7.203799750E0,-3.693195546E0,4.417129961E0,7.890905231E0,9.768168498E0
7.213878750E0,-3.790369838E0,4.956074844E0,8.212627807E0,1.031391472E1
7.223957750E0,-3.855665696E0,5.307677277E0,8.268306749E0,1.055473792E1
7.234036750E0,-3.647036456E0,5.873462049E0,7.645363104E0,1.030776447E1
7.244114750E0,-3.837826133E0,5.956382584E0,5.943737980E0,9.248536322E0
7.254193750E0,-4.942739099E0,5.799059154E0,2.651072905E0,8.067709986E0
7.264272750E0,-5.988064553E0,5.760994949E0,5.796309793E-1,8.329582941E0
7.274351750E0,-5.099507629E0,5.818340932E0,1.515716703E0,7.883873818E0
7.284430750E0,-5.320739372E0,5.773364149E0,1.751649516E0,8.044269830E0
7.294509750E0,-5.272703326E0,5.668576782E0,1.484778793E0,7.882812389E0
7.304588750E0,-4.869051611E0,5.218376845E0,7.588174412E-1,7.177389804E0
7.314667750E0,-4.233347880E0,4.379052892E0,-8.795849562E-1,6.153942492E0
7.324746750E0,-3.545752741E0,3.020321943E0,-3.016828816E0,5.549411072E0
7.334825750E0,-2.429839700E0,9.342295253E-1,-4.797658569E0,5.458427752E0
7.344904750E0,-6.936627942E-1,-1.976050158E0,-5.687226477E0,6.060568232E0
7.354983750E0,1.671069329E0,-6.132419443E0,-6.228596785E0,8.899126858E0
7.365062750E0,4.618805399E0,-1.069062810E1,-8.695981457E0,1.453420056E1
7.375141750E0,7.348026341E0,-1.391403904E1,-1.100785475E1,1.920330284E1
7.385220750E0,7.684924196E0,-1.417874016E1,-9.756154160E0,1.884880040E1
7.395299750E0,5.355598717E0,-1.035903367E1,-5.552163981E0,1.291582522E1
7.405378750E0,2.398202171E0,-5.386019441E0,-2.724472126E0,6.494869317E0
7.415457750E0,3.305667821E-1,-1.691878400E0,-1.115496719E0,2.053304617E0
7.425535750E0,-1.209813769E0,1.279567251E0,5.878419319E-1,1.856475112E0
7.435614750E0,-2.500850042E0,3.360978972E0,1.293024910E0,4.384329367E0
7.445693750E0,-3.372254451E0,4.006687582E0,7.170931721E-1,5.285817635E0
7.455772750E0,-2.645145875E0,2.624810429E0,2.045987535E-1,3.732062049E0
7.465851750E0,-5.598551112E-1,-1.658662122E-1,1.446078411E0,1.559516630E0
7.475930750E0,1.698831325E0,-2.882270350E0,4.987013047E0,6.005315093E0
7.486009750E0,2.311447617E0,-5.014002040E0,1.043351433E1,1.180428854E1
7.496088750E0,5.928661519E-1,-7.605159404E0,1.276124177E1,1.486738818E1
7.506167750E0,-2.504490518E0,-8.210202967E0,1.056043166E1,1.360891701E1
7.516246750E0,-5.900247560E0,-5.669915795E0,6.938134185E0,1.072840027E1
7.526325750E0,-6.995790070E0,-2.550540850E0,4.575208851E0,8.739500750E0
7.536404750E0,-7.104314978E0,1.189487386E-1,2.269725248E0,7.459027604E0
7.546483750E0,-6.909471719E0,2.188699942E0,6.961228640E-1,7.281194539E0
7.556562750E0,-6.076877326E0,3.561802763E0,8.602036290E-1,7.096113531E0
7.566641750E0,-4.639287026E0,4.159642557E0,2.509210975E0,6.717272514E0
7.576720750E0,-3.120678874E0,4.050309564E0,2.969790305E0,5.912977140E0
7.586799750E0,-1.263996116E0,3.266434173E0,3.440433862E0,4.909568570E0
7.596878750E0,8.473463327E-1,2.470585438E0,3.720149456E0,4.545470294E0
7.606956750E0,2.779788541E0,1.816240491E0,4.918108288E0,5.934116867E0
7.617035750E0,4.130621656E0,1.134804225E0,6.450064756E0,7.742942028E0
7.627114750E0,5.153813059E0,6.125151354E-1,7.359004489E0,9.005104714E0
7.637193750E0,6.123039340E0,3.836820120E-1,8.036003888E0,1.011020183E1
7.647272750E0,5.882578443E0,3.604498547E-1,6.728222651E0,8.944475015E0
7.657351750E0,4.216871595E0,4.951439756E-1,3.832915934E0,5.720001588E0
7.667430750E0,2.448598153E0,8.390772003E-1,1.003275202E0,2.776012355E0
7.677509750E0,6.341188431E-1,1.449901906E0,-3.931991740E0,4.238499887E0
7.687588750E0,-8.469615859E-1,1.768091009E0,-8.422489640E0,8.647648320E0
7.697667750E0,-1.436901206E0,1.992097256E0,-5.822452694E0,6.319342682E0
7.707746750E0,-1.681834053E0,2.279646950E0,-2.574799193E0,3.828178011E0
7.717825750E0,-1.987463923E0,2.149930564E0,-2.078575529E-1,2.935203406E0
7.727904750E0,-2.266096612E0,1.852221333E0,1.318684978E0,3.210116476E0
7.737983750E0,-2.560741317E0,1.536647104E0,1.994876730E0,3.591408301E0
7.748062750E0,-2.783972808E0,1.451190047E0,1.500385596E0,3.479599702E0
7.758141750E0,-2.610647303E0,1.467399114E0,6.331049359E-1,3.060973923E0
7.768220750E0,-2.085084357E0,1.507763028E0,1.949105018E-1,2.580487595E0
7.778299750E0,-1.335056743E0,1.497871293E0,-3.003472021E-1,2.028842862E0
7.788378750E0,-4.985116795E-1,1.399268526E0,-8.540028030E-1,1.713413870E0
7.798456750E0,5.238763162E-1,1.176873187E0,-1.352727029E0,1.867979472E0
7.808535750E0,1.492522261E0,9.709482855E-1,-1.917258158E0,2.616532461E0
7.818614750E0,2.404554878E0,7.444324136E-1,-2.483787282E0,3.536278134E0
7.828693750E0,3.271589371E0,3.380994576E-1,-2.925007357E0,4.401508411E0
7.838772750E0,3.833255949E0,-3.169249356E-1,-3.354124866E0,5.103375962E0
7.848851750E0,3.964195865E0,-1.027890810E0,-3.734666046E0,5.542484899E0
7.858930750E0,3.434774635E0,-1.556680834E0,-3.882639194E0,5.412561235E0
7.869009750E0,2.749884710E0,-1.631705874E0,-3.814963228E0,4.977778059E0
7.879088750E0,2.560681383E0,-1.348614097E0,-3.894078102E0,4.851772191E0
7.889167750E0,3.451172274E0,-1.092163405E0,-4.090896258E0,5.462494225E0
7.899246750E0,4.576988159E0,-1.397376952E0,-3.739734997E0,6.073475183E0
7.909325750E0,5.307971976E0,-2.016716373E0,-2.427391471E0,6.175268479E0
7.919404750E0,5.761434660E0,-2.454955831E0,-8.538931677E-1,6.320606855E0
7.929483750E0,6.123662068E0,-2.713999763E0,3.081821787E-1,6.705222449E0
7.939562750E0,6.611161394E0,-2.836879000E0,5.781443247E-1,7.217311709E0
7.949641750E0,6.859886745E0,-2.384804446E0,-1.130241935E0,7.350019404E0
7.959720750E0,6.395940589E0,-1.661921360E0,-4.470785766E0,7.978594111E0
7.969799750E0,5.766812929E0,-7.568998468E-1,-8.011712800E0,9.900331849E0
7.979877750E0,5.584204384E0,1.642026794E-1,-9.839453595E0,1.131481985E1
7.989956750E0,5.513378230E0,1.079898870E-1,-7.902944648E0,9.636676576E0
8.000036500E0,4.711224443E0,-1.070158578E0,-5.746776860E0,7.507750622E0
8.010115500E0,3.598288220E0,-2.422661074E0,-5.212959400E0,6.781733591E0
8.020194500E0,2.528901474E0,-3.954468437E0,-4.008556352E0,6.172656423E0
8.030273500E0,1.719715240E0,-5.039122848E0,-1.583412696E0,5.554941525E0
8.040352500E0,1.830084651E0,-5.429498752E0,8.748533893E-1,5.796036144E0
8.050431500E0,2.509659164E0,-5.320630614E0,3.092665449E0,6.646207853E0
8.060510500E0,2.991001080E0,-4.696011742E0,4.921504936E0,7.431004277E0
8.070589500E0,3.402838604E0,-3.769045628E0,6.316315545E0,8.104372744E0
8.080668500E0,3.705719990E0,-3.483928961E0,7.493904431E0,9.056971087E0
8.090747500E0,3.552530249E0,-3.584781736E0,8.590510551E0,9.963332916E0
8.100826500E0,3.444664615E0,-3.565909848E0,9.364767272E0,1.059623959E1
8.110905500E0,2.525581425E0,-3.602526866E0,9.326584954E0,1.031222325E1
8.120984500E0,1.732283245E0,-3.785089803E0,8.384752879E0,9.361185336E0
8.131063500E0,1.378236092E0,-3.710731931E0,6.985895412E0,8.029433410E0
8.141142500E0,6.474756378E-1,-3.224352931E0,4.460811585E0,5.542067893E0
8.151221500E0,-2.413140053E-1,-2.604084388E0,6.033624887E-1,2.683940059E0
8.161300500E0,-9.529897320E-1,-1.886294228E0,-4.160903217E0,4.666841643E0
8.171378500E0,-1.040068806E0,-1.047228722E0,-4.841779612E0,5.061744850E0
8.181457500E0,-1.149305320E0,-6.195241928E-2,3.063780203E-1,1.191053446E0
8.191536500E0,-1.484616825E0,9.876110959E-1,2.784210205E0,3.306250030E0
8.201615500E0,-1.889465758E0,2.024467442E0,4.603108256E0,5.371885599E0
8.211694500E0,-2.643882292E0,2.779879172E0,6.429577281E0,7.487142700E0
8.221773500E0,-4.166765050E0,3.348536682E0,7.692809751E0,9.367707871E0
8.231852500E0,-6.273111638E0,3.413432590E0,8.973228357E0,1.146831630E1
8.241931500E0,-6.222524452E0,3.697197381E0,8.851871735E0,1.143436541E1
8.252010500E0,-5.774830046E0,4.177147951E0,7.824655693E0,1.058406651E1
8.262089500E0,-5.451074393E0,4.506536812E0,5.612564549E0,9.029062349E0
8.272168500E0,-5.411736665E0,4.213773156E0,9.646233523E-1,6.926274334E0
8.282247500E0,-5.696261594E0,3.901464597E0,-1.703016177E-1,6.906361183E0
8.292326500E0,-6.171067784E0,3.964768308E0,2.272037091E0,7.678777108E0
8.302405500E0,-6.578254434E0,4.089353178E0,4.350705883E0,8.883967722E0
8.312484500E0,-6.685127503E0,4.313006837E0,5.398541839E0,9.614427268E0
8.322563500E0,-6.126257063E0,4.640971316E0,5.574593900E0,9.494510915E0
8.332642500E0,-4.928290629E0,4.894308366E0,4.802999708E0,8.444590523E0
8.342720500E0,-3.764073740E0,4.865393885E0,3.407067018E0,7.031956658E0
8.352799500E0,-2.948068483E0,4.664734985E0,1.716328533E0,5.778982947E0
8.362878500E0,-2.450861025E0,4.248177003E0,-2.558215320E-1,4.911127393E0
8.372957500E0,-2.042892019E0,3.256844155E0,-2.265510429E0,4.462396122E0
8.383036500E0,-1.277911904E0,1.607306612E0,-4.587770132E0,5.026343419E0
8.393115500E0,3.352050859E-1,-6.788056040E-1,-5.701550986E0,5.751593096E0
8.403194500E0,2.717581183E0,-4.191200565E0,-5.635491482E0,7.530615772E0
8.413273500E0,5.590424067E0,-8.558234505E0,-7.499471565E0,1.267826064E1
8.423352500E0,8.100125624E0,-1.192650612E1,-1.130865424E1,1.832318870E1
8.433431500E0,9.105949042E0,-1.331926962E1,-1.282278488E1,2.060934408E1
8.443510500E0,7.799739538E0,-9.852033294E0,-8.511087821E0,1.517686110E1
8.453589500E0,4.634121303E0,-4.765258563E0,-3.977832742E0,7.746348994E0
8.463668500E0,1.821050996E0,-8.087085164E-1,-1.031245650E0,2.243591715E0
8.473747500E0,-1.186136931E-1,2.224828134E0,1.325743590E0,2.592590500E0
8.483826500E0,-1.482007797E0,4.412538727E0,3.065989574E0,5.573790200E0
8.493905500E0,-2.805999269E0,6.029512541E0,3.219600899E0,7.388807978E0
8.503984500E0,-3.324357276E0,6.118850394E0,1.034718312E0,7.040051380E0
8.514063500E0,-1.955188462E0,4.707678691E0,-8.338784409E-1,5.165302879E0
8.524142500E0,1.913173878E-1,2.680322725E0,1.307473965E-1,2.690321009E0
8.534220500E0,2.132240982E0,1.078513080E-1,4.297633338E0,4.798722311E0
8.544299500E0,3.197299034E0,-2.559336231E0,7.808740157E0,8.817558953E0
8.554378500E0,2.878167359E0,-6.704855424E0,1.001021217E1,1.238722250E1
8.564457500E0,1.204331127E0,-1.165284357E1,1.048226491E1,1.571995720E1
8.574536500E0,-2.730019965E0,-1.241632270E1,4.206244866E0,1.339068984E1
8.584615500E0,-6.896316068E0,-9.350143386E0,2.547045969E0,1.189419185E1
8.594694500E0,-7.875555705E0,-5.505346495E0,1.771307416E0,9.770913348E0
8.604773500E0,-7.801659179E0,-1.458975030E0,-1.315856095E0,8.045245263E0
8.614852500E0,-6.954531532E0,1.728280826E0,-1.309877024E0,7.284795211E0
8.624931500E0,-5.813141588E0,3.895701581E0,1.681896619E0,7.197074556E0
8.635010500E0,-4.384394031E0,5.516799436E0,3.241701035E0,7.756714037E0
8.645089500E0,-3.026138753E0,5.448565353E0,4.106641055E0,7.463838216E0
8.655168500E0,-1.139006619E0,4.826805185E0,4.743366587E0,6.862573202E0
8.665247500E0,4.414788151E-1,3.727288907E0,4.852662742E0,6.134812289E0
8.675326500E0,1.264799523E0,2.501980893E0,4.963613074E0,5.700621104E0
8.685405500E0,1.648061121E0,1.501393071E0,4.592808385E0,5.105308559E0
8.695484500E0,2.297234205E0,4.968735820E-1,4.628816709E0,5.191349774E0
8.705562500E0,3.623717176E0,-5.701619983E-3,5.179843109E0,6.321560987E0
8.715641500E0,4.386760692E0,-7.471279800E-2,4.410758834E0,6.221257499E0
8.725720500E0,3.966697889E0,3.975270492E-1,2.536218680E0,4.724947099E0
8.735799500E0,2.885712022E0,7.528898263E-1,-1.644546944E-1,2.986841527E0
8.745878500E0,1.489464751E0,1.125727007E0,-4.491908247E0,4.864463613E0
8.755957500E0,4.085455424E-1,1.439452931E0,-4.898451703E0,5.121890597E0
8.766036500E0,-3.508335239E-1,1.746979052E0,-2.977624112E0,3.470052640E0
8.776115500E0,-8.347420746E-1,1.881708257E0,-1.047960793E0,2.309944181E0
8.786194500E0,-1.053422678E0,1.651924961E0,1.201149073E0,2.298111074E0
8.796273500E0,-1.212281587E0,1.351312587E0,2.132878621E0,2.800864789E0
8.806352500E0,-1.306427606E0,1.338478534E0,1.632526238E0,2.482623570E0
8.816431500E0,-1.357172082E0,1.473632830E0,5.696731710E-1,2.082795549E0
8.826510500E0,-1.366903018E0,1.676473326E0,-1.321976522E-1,2.167132413E0
8.836589500E0,-1.292933401E0,1.964243460E0,-7.063465744E-1,2.455372606E0
8.846668500E0,-1.030427333E0,2.132042177E0,-1.177002996E0,2.644375235E0
8.856747500E0,-6.474130726E-1,2.087423828E0,-1.538707370E0,2.672845356E0
8.866825500E0,-1.957197565E-1,1.920675271E0,-1.673890903E0,2.555231981E0
8.876904500E0,3.170597139E-1,1.584483175E0,-1.669665705E0,2.323552746E0
8.886983500E0,8.328154171E-1,9.559238648E-1,-1.698170589E0,2.119234603E0
8.897062500E0,1.339307084E0,5.994565487E-2,-1.874773166E0,2.304801808E0
8.907141500E0,1.627637089E0,-8.030092353E-1,-2.210063329E0,2.859791294E0
8.917220500E0,1.702826435E0,-1.491117759E0,-2.553951238E0,3.412582155E0
8.927299500E0,1.673702038E0,-1.846594557E0,-3.008560561E0,3.906741176E0
8.937378500E0,1.640063884E0,-1.792623587E0,-3.651963320E0,4.386358964E0
8.947457500E0,2.098727958E0,-1.220194039E0,-4.285538665E0,4.925380613E0
8.957536500E0,3.039000288E0,-7.898044682E-1,-4.656536019E0,5.616283607E0
8.967615500E0,4.061165213E0,-8.473855090E-1,-4.093500608E0,5.828196317E0
8.977694500E0,4.870954295E0,-1.123903846E0,-2.496678930E0,5.587733107E0
8.987773500E0,5.369373003E0,-1.385154517E0,-9.230204129E-1,5.621457655E0
8.997847833E0,5.908234271E0,-1.647353023E0,2.881697908E-1,6.140362043E0
9.007926833E0,6.329333786E0,-1.759633012E0,5.046705517E-1,6.588737882E0
9.018005833E0,6.695924971E0,-1.687097132E0,-9.796884111E-1,6.974345656E0
9.028084833E0,6.947140067E0,-1.191901701E0,-4.167774280E0,8.188634026E0
9.038162833E0,6.579304594E0,-5.668238229E-1,-7.841865803E0,1.025199480E1
9.048241833E0,6.173806036E0,-2.708044374E-1,-9.318003581E0,1.118098416E1
9.058320833E0,5.778253006E0,-1.116305974E0,-7.480091554E0,9.517673901E0
9.068399833E0,5.342144859E0,-2.509436678E0,-5.281156061E0,7.919999588E0
9.078478833E0,5.165830257E0,-3.815049766E0,-3.501715021E0,7.314534507E0
9.088557833E0,4.838314844E0,-4.997716375E0,-1.091339824E0,7.041127900E0
9.098636833E0,4.145958318E0,-5.713039010E0,1.394735180E0,7.195350675E0
9.108715833E0,3.020025489E0,-5.638732009E0,2.528678695E0,6.878231500E0
9.118794833E0,1.990190772E0,-5.171407331E0,2.952338705E0,6.278583990E0
9.128873833E0,1.540332604E0,-4.108509241E0,2.732966961E0,5.169292130E0
9.138952833E0,1.405949555E0,-3.537380698E0,2.844800223E0,4.752120018E0
9.149031833E0,1.414955729E0,-3.721330594E0,3.857843199E0,5.543767243E0
9.159110833E0,1.254078946E0,-4.651576996E0,5.422244697E0,7.253317868E0
9.169189833E0,7.684890282E-1,-5.845065047E0,6.862112195E0,9.046764315E0
9.179268833E0,-4.044460595E-2,-6.788218008E0,7.124822917E0,9.840967487E0
9.189347833E0,-7.123434788E-1,-7.142222477E0,5.907889870E0,9.296340025E0
9.199425833E0,-1.458559293E0,-6.861300602E0,4.236908834E0,8.194890947E0
9.209504833E0,-1.962974614E0,-5.585370319E0,2.413531816E0,6.393337686E0
9.219583833E0,-2.109517533E0,-4.038508129E0,1.351050924E0,4.752362647E0
9.229662833E0,-1.883725546E0,-2.358815911E0,2.044828324E-1,3.025598728E0
9.239741833E0,-1.513137204E0,-8.018532407E-1,-9.552913423E-1,1.960901417E0
9.249820833E0,-1.413806459E0,5.153882056E-1,1.287697220E-1,1.510316307E0
9.259899833E0,-1.763679285E0,1.554038478E0,2.083353581E0,3.141012951E0
9.269978833E0,-2.138974636E0,2.445697349E0,3.654671458E0,4.890119782E0
9.280057833E0,-2.455010210E0,3.244730478E0,5.288859183E0,6.672884118E0
9.290136833E0,-4.206778132E0,3.457745714E0,7.490802484E0,9.260945390E0
9.300215833E0,-4.288342697E0,3.946045523E0,8.375473348E0,1.020341669E1
9.310294833E0,-3.132522410E0,4.879357620E0,8.918946315E0,1.063806518E1
9.320373833E0,-2.329300336E0,5.613955017E0,9.491441352E0,1.127074043E1
9.330452833E0,-1.940612522E0,5.990170135E0,8.819916701E0,1.083692972E1
9.340531833E0,-2.583860623E0,6.105021145E0,7.144675384E0,9.746486815E0
9.350609833E0,-4.180932854E0,5.708378779E0,3.248828499E0,7.785927975E0
9.360688833E0,-5.296278130E0,4.933758361E0,4.238120377E-1,7.250665503E0
9.370767833E0,-5.669757335E0,4.674442533E0,1.228674548E0,7.450248477E0
9.380846833E0,-6.359794271E0,4.611643437E0,2.278580125E0,8.179618924E0
9.390925833E0,-6.106259585E0,5.049413947E0,3.179865561E0,8.537829485E0
9.401004833E0,-4.804288142E0,5.607064074E0,3.207665855E0,8.050433052E0
9.411083833E0,-4.251927992E0,5.470025219E0,2.375919309E0,7.324278812E0
9.421162833E0,-4.353430393E0,5.225851341E0,1.629034573E0,6.993971123E0
9.431241833E0,-4.109407958E0,4.918321127E0,5.165345523E-1,6.429924137E0
9.441320833E0,-4.265076626E0,4.346328365E0,-8.750372842E-1,6.152002855E0
9.451399833E0,-3.825297596E0,3.149092834E0,-2.833634380E0,5.707816674E0
9.461478833E0,-2.433515260E0,1.143839927E0,-5.203558831E0,5.857251131E0
9.471557833E0,3.239433485E-1,-2.357540048E0,-7.202137141E0,7.585098139E0
9.481636833E0,4.579966730E0,-8.019255123E0,-9.436371106E0,1.320339531E1
9.491715833E0,9.025822307E0,-1.358403623E1,-1.414752070E1,2.159036476E1
9.501794833E0,1.221804947E1,-1.640923541E1,-1.625727329E1,2.613125857E1
9.511872833E0,1.244261997E1,-1.450315889E1,-1.012972692E1,2.162803220E1
9.521951833E0,7.330025688E0,-8.779494315E0,-3.181287603E0,1.187136841E1
9.532030833E0,2.290415182E0,-3.243104367E0,9.163171649E-1,4.074722664E0
9.542109833E0,-9.274087483E-1,6.654961717E-1,4.067270583E0,4.224412638E0
9.552188833E0,-3.543611491E0,3.584663038E0,4.729129494E0,6.911704367E0
9.562267833E0,-5.296713747E0,5.275632196E0,2.694674715E0,7.946618363E0
9.572346833E0,-6.617465277E0,5.514682744E0,-4.334166741E-1,8.624988260E0
9.582425833E0,-5.329867460E0,4.496488956E0,-2.143751811E0,7.295311638E0
9.592504833E0,-2.384898586E0,2.605456730E0,-6.492397428E-1,3.591330990E0
9.602583833E0,-8.990094066E-3,3.391233051E-1,3.924438307E0,3.939073681E0
9.612662833E0,1.671937641E0,-2.258066046E0,8.597694440E0,9.045141648E0
9.622741833E0,1.946183165E0,-6.068405296E0,1.050860077E1,1.228999031E1
9.632820833E0,2.202417510E0,-1.004163394E1,8.677090273E0,1.345276740E1
9.642899833E0,-3.239433485E-1,-9.626510864E0,2.976756678E0,1.008145481E1
9.652977833E0,-3.887958698E0,-7.342918798E0,5.279907095E0,9.844394255E0
9.663056833E0,-5.745989240E0,-3.373760401E0,4.749892080E0,8.182916739E0
9.673135833E0,-6.303383258E0,-2.889758295E-1,3.214987446E0,7.081828281E0
9.683214833E0,-6.114357394E0,2.077581210E0,2.493722870E0,6.922453595E0
9.693293833E0,-5.703567106E0,3.595351748E0,2.107197650E0,7.063817230E0
9.703372833E0,-4.310036452E0,4.524916949E0,1.840046260E0,6.514373174E0
9.713451833E0,-2.017826467E0,3.958625223E0,2.109268295E0,4.918470295E0
9.723530833E0,-2.893939054E-1,2.962762536E0,3.879434627E0,4.889961524E0
9.733609833E0,1.537049977E0,2.120882766E0,3.343415691E0,4.247245557E0
9.743688833E0,2.944100563E0,1.269051034E0,3.777359784E0,4.954459162E0
9.753767833E0,3.979616727E0,5.010484940E-1,4.053983370E0,5.702909788E0
9.763846833E0,4.774511781E0,-2.401661968E-1,5.213913665E0,7.073792354E0
9.773925833E0,6.068201228E0,-1.455570781E-1,6.486336789E0,8.883513828E0
9.784004833E0,6.176165387E0,1.310448736E-1,5.749326831E0,8.439013607E0
9.794083833E0,4.702227917E0,5.392945468E-1,3.190930831E0,5.708224379E0
9.804162833E0,2.618327036E0,1.073983242E0,-4.579621160E-1,2.866845962E0
9.814240833E0,5.195987856E-1,1.662708980E0,-4.300363988E0,4.639796814E0
9.824319833E0,-1.065363861E0,2.096729672E0,-4.684348301E0,5.241602281E0
9.834398833E0,-1.940882664E0,2.541208693E0,-3.187244747E0,4.514786397E0
9.844477833E0,-2.470234605E0,2.786811047E0,-1.353111922E0,3.962232538E0
9.854556833E0,-2.954868795E0,2.565733085E0,7.857921088E-1,3.991454008E0
9.864635833E0,-3.316302152E0,2.030483642E0,2.809211730E0,4.797123547E0
9.874714833E0,-3.715704988E0,1.546915984E0,3.125650762E0,5.095989139E0
9.884793833E0,-3.763390785E0,1.131411086E0,2.232066109E0,4.519438059E0
9.894872833E0,-3.516328382E0,7.975777566E-1,6.608157679E-1,3.665702259E0
9.904951833E0,-2.935451946E0,7.941425174E-1,-6.030093169E-1,3.100187205E0
9.915030833E0,-2.076996489E0,9.330185670E-1,-1.523361061E0,2.739537731E0
9.925109833E0,-1.109317966E0,9.015821815E-1,-2.004698006E0,2.462163860E0
9.935188833E0,-2.941389209E-1,7.502386987E-1,-2.384850931E0,2.517317972E0
9.945266833E0,2.980258575E-1,5.621495587E-1,-2.626062317E0,2.702042715E0
9.955345833E0,8.598304304E-1,5.146947259E-1,-2.752001110E0,2.928776048E0
9.965424833E0,1.498041155E0,3.552464175E-1,-2.782385581E0,3.179936610E0
9.975503833E0,2.297112583E0,-3.129312873E-2,-2.675213428E0,3.526254722E0
9.985582833E0,3.132344069E0,-5.368404704E-1,-2.650956838E0,4.138520172E0
9.995661833E0,3.838432197E0,-9.182596099E-1,-2.666929677E0,4.763326185E0
1.000574212E1,4.500915006E0,-9.784958714E-1,-2.666167785E0,5.322042909E0
1.001582113E1,5.155442094E0,-8.911735529E-1,-2.813488968E0,5.940411910E0
1.002590012E1,5.855404093E0,-9.642608249E-1,-2.922665840E0,6.614947592E0
1.003597913E1,6.534538895E0,-1.006998124E0,-2.804374913E0,7.181835591E0
1.004605812E1,7.078465607E0,-1.067655970E0,-2.118053883E0,7.465300856E0
1.005613713E1,7.501022832E0,-1.336119182E0,-1.210158170E0,7.714599198E0
1.006621612E1,7.720027955E0,-1.718791965E0,-8.056398976E-1,7.949976924E0
1.007629513E1,7.236065025E0,-2.202878855E0,-1.514959196E0,7.714169668E0
1.008637412E1,5.791879942E0,-2.554091279E0,-3.194893782E0,7.090599538E0
1.009645212E1,4.117102017E0,-2.348435934E0,-5.940995636E0,7.600072993E0
1.010653113E1,3.000838435E0,-1.468284967E0,-8.497970762E0,9.131067798E0
1.011661012E1,3.430930383E0,-5.289747959E-1,-8.841137416E0,9.498252915E0
1.012668913E1,4.602429979E0,-5.946074528E-1,-7.138856235E0,8.514645505E0
1.013676812E1,4.533887455E0,-1.690649900E0,-5.884443705E0,7.618471649E0
1.014684713E1,3.625643833E0,-2.960349391E0,-4.597612750E0,6.561021622E0
1.015692612E1,2.479283464E0,-4.124828235E0,-2.395984322E0,5.376039000E0
1.016700513E1,1.545819339E0,-4.996583185E0,2.336553222E-1,5.235455640E0
1.017708412E1,1.129033315E0,-5.181193231E0,2.179247772E0,5.733114370E0
1.018716313E1,1.270111719E0,-4.874235460E0,3.803858780E0,6.311948726E0
1.019724212E1,2.155071436E0,-4.176745078E0,5.205538698E0,7.013356221E0
1.020732113E1,3.026059231E0,-3.167555417E0,5.725727468E0,7.209327072E0
1.021740012E1,3.793298124E0,-2.744745592E0,6.012062695E0,7.620212390E0
1.022747813E1,4.035830397E0,-2.741155402E0,6.410199609E0,8.055589299E0
1.023755712E1,4.053719368E0,-2.842408127E0,6.921509382E0,8.509948108E0
1.024763613E1,3.422666513E0,-2.930559581E0,6.942862244E0,8.276844909E0
1.025771512E1,2.305409197E0,-3.034051790E0,6.184309974E0,7.264025859E0
1.026779413E1,1.320610027E0,-2.755961137E0,4.709093717E0,5.613812989E0
1.027787312E1,6.425154448E-2,-2.398037864E0,2.690022086E0,3.604293645E0
1.028795213E1,-1.115697278E0,-1.961115199E0,5.197181419E-1,2.315353146E0
1.029803112E1,-1.907796194E0,-1.326785856E0,-2.912916777E0,3.726275778E0
1.030811013E1,-2.067744439E0,-5.488828111E-1,-3.680967264E0,4.257506243E0
1.031818912E1,-1.971802740E0,1.996204340E-1,-5.692406233E-1,2.062010973E0
1.032826813E1,-1.821249801E0,9.681503928E-1,1.589784553E0,2.604166075E0
1.033834712E1,-1.698692161E0,1.540146663E0,3.215970948E0,3.949693145E0
1.034842613E1,-1.576465473E0,2.115405094E0,4.909362023E0,5.573330922E0
1.035850512E1,-1.497201203E0,2.901944477E0,6.135571092E0,6.950404723E0
1.036858313E1,-1.731482762E0,3.328527510E0,7.032876620E0,7.971102903E0
1.037866213E1,-2.068967677E0,3.807843073E0,7.504688451E0,8.666062824E0
1.038874113E1,-2.659596099E0,4.360526574E0,7.584069082E0,9.143617842E0
1.039882013E1,-3.308125990E0,4.642796817E0,7.388927615E0,9.332497583E0
1.040889913E1,-3.832644623E0,4.539893423E0,6.590251166E0,8.873060776E0
1.041897813E1,-3.853229746E0,4.461254804E0,4.296406884E0,7.294469550E0
1.042905713E1,-4.545785077E0,4.125283733E0,1.846160109E0,6.410182134E0
1.043913613E1,-5.246899563E0,3.519688193E0,1.134277098E0,6.419092189E0
1.044921513E1,-5.822766105E0,3.046306384E0,2.093269582E0,6.896837336E0
1.045929413E1,-6.168954016E0,2.925640318E0,2.948895280E0,7.437159962E0
1.046937313E1,-6.532995231E0,3.065803340E0,3.795689343E0,8.153921412E0
1.047945213E1,-6.595285034E0,3.322068676E0,4.380845649E0,8.586369056E0
1.048953113E1,-6.242821891E0,3.617806225E0,4.276334270E0,8.387394222E0
1.049960913E1,-5.487566866E0,3.838255026E0,3.269107520E0,7.452023600E0
1.050968812E1,-4.737426401E0,3.688861590E0,1.610108890E0,6.216378316E0
1.051976713E1,-3.879587240E0,3.107329681E0,-6.696954958E-1,5.015494687E0
1.052984612E1,-2.933588439E0,2.013774054E0,-3.350931409E0,4.887736529E0
1.053992513E1,-1.466566470E0,1.337644136E-1,-5.326372579E0,5.526206202E0
1.055000412E1,9.575476366E-1,-2.985117027E0,-6.411420507E0,7.136815401E0
1.056008313E1,4.429034892E0,-8.333773345E0,-8.682219450E0,1.282376945E1
1.057016212E1,8.030727945E0,-1.237344741E1,-1.414098936E1,2.043434296E1
1.058024113E1,1.047763508E1,-1.303682221E1,-1.732974737E1,2.408442887E1
1.059032012E1,1.051308792E1,-9.473920171E0,-1.175096102E1,1.839470755E1
1.060039913E1,6.696909642E0,-4.195548554E0,-5.129524895E0,9.421425161E0
1.061047812E1,2.567831651E0,-4.788600647E-1,-1.184375750E0,2.868067689E0
1.062055713E1,4.065159738E-2,1.961364291E0,1.678507572E0,2.581857878E0
1.063063512E1,-1.474256728E0,3.545100192E0,4.177739982E0,5.674035568E0
1.064071413E1,-3.566016267E0,3.901231878E0,5.917399782E0,7.934210885E0
1.065079312E1,-3.944124128E0,2.393681104E0,4.389991571E0,6.368504562E0
1.066087213E1,-9.586603618E-1,7.743233800E-2,2.518956822E0,2.696325078E0
1.067095112E1,1.444900197E0,-2.027579330E0,2.142656920E0,3.284782062E0
1.068103013E1,3.045774288E0,-4.479425611E0,5.602396241E0,7.792871003E0
1.069110912E1,3.147711137E0,-7.313428951E0,9.626229029E0,1.249234220E1
1.070118813E1,1.196932061E0,-1.021253636E1,9.828664312E0,1.422431676E1
1.071126712E1,-2.845300745E0,-9.212894617E0,4.527876810E0,1.065245662E1
1.072134613E1,-5.788218416E0,-4.454666746E0,1.566807189E0,7.470101272E0
1.073142512E1,-6.130322047E0,-8.493823332E-1,6.010234563E-1,6.218000317E0
1.074150413E1,-6.401649810E0,1.829485604E0,4.570746548E-1,6.673608852E0
1.075158312E1,-6.486947238E0,3.778451459E0,1.105920149E0,7.588164420E0
1.076166112E1,-6.527909907E0,5.292379791E0,2.176556883E0,8.681030554E0
1.077174013E1,-6.025800143E0,6.157297007E0,3.289358182E0,9.221846401E0
1.078181912E1,-4.301477882E0,5.656406388E0,3.186661195E0,7.787968590E0
1.079189813E1,-1.830821108E0,3.730965051E0,4.916136607E0,6.437422254E0
1.080197712E1,5.713331956E-1,2.471409311E0,5.007716868E0,5.613511720E0
1.081205613E1,2.031100523E0,7.883917809E-1,5.241583859E0,5.676366117E0
1.082213512E1,3.307789190E0,-2.762014174E-1,6.680585970E0,7.459757735E0
1.083221413E1,4.624220797E0,-1.068616667E0,7.870341743E0,9.190627765E0
1.084229312E1,5.127340375E0,-1.356472755E0,7.306624546E0,9.028643304E0
1.085237213E1,4.675783299E0,-9.715043557E-1,5.263857658E0,7.107388242E0
1.086245112E1,3.859291554E0,-3.121389896E-1,2.579086956E0,4.652230817E0
1.087253013E1,2.696542901E0,5.697725737E-1,-1.753381754E0,3.266547409E0
1.088260912E1,1.439932403E0,1.546693790E0,-7.888914839E0,8.167046243E0
1.089268713E1,5.589423609E-1,2.270980207E0,-7.184596079E0,7.555672603E0
1.090276612E1,-2.351755983E-1,2.839236597E0,-4.068409036E0,4.966741799E0
1.091284513E1,-6.128419948E-1,3.161795325E0,-1.299363585E0,3.472876432E0
1.092292412E1,-8.301315451E-1,2.957318779E0,1.402903010E0,3.376831295E0
1.093300313E1,-1.157178596E0,2.430617380E0,3.286436913E0,4.248250314E0
1.094308212E1,-1.711118664E0,1.915325069E0,3.576431327E0,4.403096438E0
1.095316113E1,-2.133850721E0,1.687201213E0,2.206814616E0,3.502855632E0
1.096324012E1,-2.084749604E0,1.577851263E0,7.780246675E-1,2.727841254E0
1.097331913E1,-1.807566147E0,1.563044944E0,-2.934512883E-1,2.407596006E0
1.098339812E1,-1.454801288E0,1.597502001E0,-1.345874092E0,2.545552298E0
1.099347713E1,-8.943930298E-1,1.453726569E0,-2.189750979E0,2.776376988E0
1.100355946E1,-2.540574270E-1,1.115706634E0,-2.805189722E0,3.029593347E0
1.101363846E1,4.198572734E-1,7.034633124E-1,-3.413871131E0,3.510791486E0
1.102371646E1,1.016762682E0,2.961912936E-1,-3.648227827E0,3.798829018E0
1.103379546E1,1.425110004E0,-2.848997355E-1,-3.455358003E0,3.748547093E0
1.104387446E1,1.793778412E0,-1.026998525E0,-2.997456990E0,3.641032185E0
1.105395346E1,2.355964516E0,-1.709945712E0,-2.497850420E0,3.835849301E0
1.106403246E1,2.572530473E0,-2.293927605E0,-2.244228610E0,4.112976896E0
1.107411146E1,2.724805418E0,-2.288857484E0,-2.118004766E0,4.141180669E0
1.108419046E1,2.950649152E0,-1.533737530E0,-2.545033065E0,4.187585764E0
1.109426946E1,3.498623598E0,-7.369111401E-1,-3.323201866E0,4.881298572E0
1.110434846E1,4.312741081E0,-2.789086783E-1,-4.064151678E0,5.932525141E0
1.111442746E1,4.969657341E0,-2.957913440E-1,-3.941230341E0,6.349667961E0
1.112450646E1,5.709788543E0,-6.509640867E-1,-2.603207306E0,6.308892749E0
1.113458546E1,6.235467263E0,-1.270712228E0,-1.204893630E0,6.476691302E0
1.114466446E1,6.661074981E0,-1.716349583E0,-4.513331276E-1,6.893437269E0
1.115474346E1,7.076871071E0,-1.809088762E0,-9.869445133E-1,7.370818528E0
1.116482146E1,6.665293747E0,-1.459333465E0,-3.415261891E0,7.630190606E0
1.117490046E1,5.370098058E0,-9.401474923E-1,-6.777458546E0,8.698032812E0
1.118497946E1,4.643999881E0,-5.415509874E-1,-8.630275126E0,9.815378806E0
1.119505846E1,4.974552630E0,-8.950882638E-1,-7.262975081E0,8.848624972E0
1.120513746E1,5.443253742E0,-1.964030036E0,-4.343027320E0,7.235213306E0
1.121521646E1,5.453327326E0,-3.171847858E0,-2.251908343E0,6.698543793E0
1.122529546E1,5.324327223E0,-4.477731088E0,-1.028164460E0,7.032471702E0
1.123537446E1,4.781472307E0,-5.276424494E0,4.867953211E-2,7.120779631E0
1.124545346E1,3.782139005E0,-5.263495131E0,8.534853244E-1,6.537384312E0
1.125553246E1,2.705040659E0,-5.001890118E0,1.368259572E0,5.848784829E0
1.126561146E1,2.040944019E0,-4.119967445E0,1.530701655E0,4.845888132E0
1.127569046E1,1.899860645E0,-3.558899621E0,1.875276319E0,4.448808633E0
1.128576946E1,2.010038853E0,-3.367476983E0,2.737475165E0,4.782669516E0
1.129584746E1,2.095935035E0,-3.695542034E0,4.194612415E0,5.970322262E0
1.130592646E1,2.126993691E0,-4.906538987E0,6.302238373E0,8.265375703E0
1.131600546E1,9.195319641E-1,-5.584429502E0,8.182927460E0,9.949456956E0
1.132608446E1,-5.400511765E-1,-5.911294704E0,8.190243496E0,1.011509510E1
1.133616346E1,-1.635244024E0,-5.428329309E0,6.767731703E0,8.828531843E0
1.134624246E1,-2.224029404E0,-4.572172392E0,5.118043302E0,7.214252173E0
1.135632146E1,-2.360340865E0,-3.476377866E0,2.854532329E0,5.079839258E0
1.136640046E1,-1.956623953E0,-2.137536805E0,8.790283012E-1,3.028222522E0
1.137647946E1,-1.453202659E0,-8.665737319E-1,-6.637886386E-1,1.817515710E0
1.138655846E1,-1.087558138E0,1.325154483E-1,-1.547839844E0,1.896352085E0
1.139663746E1,-9.352966422E-1,1.131894066E0,1.073013774E-1,1.472235569E0
1.140671646E1,-1.087328927E0,2.178739210E0,2.410332220E0,3.426206379E0
1.141679446E1,-1.288574887E0,2.767733336E0,4.074427575E0,5.091339030E0
1.142687346E1,-1.525432144E0,3.249816971E0,5.656431531E0,6.699512761E0
1.143695246E1,-1.613550854E0,4.061310516E0,6.719139587E0,8.015274559E0
1.144703146E1,-1.972135447E0,4.776661218E0,7.928679414E0,9.464130592E0
1.145711046E1,-2.222410895E0,5.234225723E0,8.030150825E0,9.839692646E0
1.146718946E1,-2.649375751E0,5.344539878E0,7.486832224E0,9.572667086E0
1.147726846E1,-3.563925887E0,5.562129976E0,6.621117448E0,9.352970323E0
1.148734746E1,-4.012219048E0,5.338301484E0,4.478085430E0,8.040436153E0
1.149742646E1,-5.067364900E0,4.774680181E0,2.248379256E0,7.316485983E0
1.150750546E1,-5.594506593E0,4.589041609E0,2.047537924E0,7.519987930E0
1.151758446E1,-5.814444348E0,4.517607345E0,2.790781598E0,7.874325439E0
1.152766346E1,-6.069388797E0,4.526146619E0,3.478182025E0,8.331940577E0
1.153774246E1,-6.431166555E0,4.632047296E0,3.871520713E0,8.820682402E0
1.154782046E1,-6.679293151E0,4.585339737E0,3.979392779E0,9.026287409E0
1.155789946E1,-6.068540951E0,4.519092538E0,3.167921745E0,8.202750443E0
1.156797846E1,-5.734004202E0,4.272654033E0,1.691905590E0,7.348259739E0
1.157805746E1,-5.249340776E0,3.697575111E0,-4.164974633E-1,6.434369465E0
1.158813646E1,-4.549672014E0,2.835949293E0,-3.195681694E0,6.241354446E0
1.159821546E1,-3.478803291E0,1.584549834E0,-5.451887741E0,6.658524646E0
1.160829446E1,-1.743352609E0,-5.222580993E-1,-6.183726422E0,6.445968065E0
1.161837346E1,9.773059630E-1,-3.953612405E0,-6.556088809E0,7.718061833E0
1.162845246E1,4.297479556E0,-9.759910412E0,-9.162921388E0,1.405998969E1
1.163853146E1,7.758987368E0,-1.481386238E1,-1.388781662E1,2.173761381E1
1.164861046E1,1.060980321E1,-1.631375623E1,-1.488386525E1,2.449971451E1
1.165868946E1,9.612034328E0,-1.235884340E1,-9.137959625E0,1.812827957E1
1.166876746E1,4.432562517E0,-5.810658860E0,-3.358355327E0,8.043004249E0
1.167884646E1,3.552470022E-1,-8.609089494E-1,-9.619304171E-1,1.338908055E0
1.168892546E1,-1.536030223E0,2.654608424E0,6.291989958E-1,3.130850700E0
1.169900446E1,-2.623395402E0,4.910724424E0,1.511650257E0,5.769099090E0
1.170908346E1,-2.951325967E0,5.598951062E0,1.191133523E0,6.440293241E0
1.171916246E1,-1.403220075E0,3.706030185E0,6.503976376E-1,4.015806693E0
1.172924146E1,1.787586211E0,5.219458580E-2,1.357148401E0,2.245003456E0
1.173932046E1,4.535736637E0,-2.781429269E0,5.790008833E0,7.863425329E0
1.174939946E1,4.598804705E0,-5.464530591E0,1.179403278E1,1.378801322E1
1.175947846E1,3.069267231E0,-8.192574781E0,1.381376982E1,1.635111371E1
1.176955746E1,-6.723064238E-1,-7.304687364E0,9.639953613E0,1.211359398E1
1.177963646E1,-4.398473250E0,-4.020101679E0,6.679311862E0,8.951032979E0
1.178971546E1,-6.002042906E0,-1.091406190E0,4.401933632E0,7.522812388E0
1.179979346E1,-6.567080405E0,1.098633349E0,2.656898779E0,7.168866814E0
1.180987246E1,-6.865274370E0,2.637516428E0,1.215742553E0,7.454295073E0
1.181995146E1,-6.783039714E0,3.811301116E0,7.724313672E-1,7.818714355E0
1.183003046E1,-6.407497026E0,4.502506326E0,1.644160881E0,8.001990150E0
1.184010946E1,-5.124937754E0,3.855355793E0,2.141880556E0,6.761390951E0
1.185018846E1,-3.184988306E0,2.640267543E0,2.859745706E0,5.029245342E0
1.186026746E1,-1.160684586E0,1.344395331E0,3.573279094E0,3.990352239E0
1.187034646E1,5.740492272E-1,-1.663883686E-1,4.708548172E0,4.746329476E0
1.188042546E1,2.089125368E0,-1.525652000E0,6.600106648E0,7.088967950E0
1.189050446E1,3.300915788E0,-2.117225917E0,8.006778334E0,8.915558868E0
1.190058346E1,4.648096733E0,-2.373387757E0,8.904849848E0,1.032153688E1
1.191066246E1,5.172062804E0,-1.518442383E0,7.900413973E0,9.564122640E0
1.192074046E1,4.688088765E0,-6.567621857E-1,4.925296270E0,6.831402212E0
1.193081946E1,3.348341385E0,7.980841255E-1,1.537269832E0,3.769817879E0
1.194089846E1,2.226792798E0,2.016421089E0,-1.241241091E0,3.250421453E0
1.195097746E1,8.999087083E-1,3.030627660E0,-5.896914062E0,6.690899428E0
1.196105646E1,-4.561617583E-1,3.544587391E0,-6.582545121E0,7.490132415E0
1.197113546E1,-1.336813247E0,3.514739694E0,-3.622001603E0,5.221049740E0
1.198121446E1,-1.429560027E0,3.342791793E0,-6.105089557E-1,3.686545812E0
1.199129346E1,-1.582266496E0,2.644241896E0,1.713959387E0,3.526079870E0
1.200136858E1,-1.790004619E0,1.954647594E0,2.591187184E0,3.706617701E0
1.201144758E1,-1.829504315E0,1.373712686E0,2.369064033E0,3.293423291E0
1.202152658E1,-1.908715961E0,1.041345838E0,8.137856537E-1,2.321603942E0
1.203160558E1,-1.769269808E0,8.559446633E-1,-9.403153074E-1,2.178795492E0
1.204168458E1,-1.308343154E0,1.045882693E0,-2.027545709E0,2.629938025E0
1.205176258E1,-7.520431495E-1,1.238102891E0,-2.536598749E0,2.921095835E0
1.206184158E1,-3.195351326E-1,1.297632809E0,-2.460260425E0,2.799791950E0
1.207192058E1,2.165706351E-1,1.297950897E0,-2.195256133E0,2.559439169E0
1.208199958E1,8.790589991E-1,1.200798240E0,-1.961735297E0,2.462329489E0
1.209207858E1,1.574349073E0,9.643058485E-1,-1.764949593E0,2.554115863E0
1.210215758E1,2.067100076E0,3.406365645E-1,-1.647105101E0,2.664937374E0
1.211223658E1,2.392607847E0,-5.332035023E-1,-1.679762093E0,2.971612184E0
1.212231558E1,2.207323324E0,-1.319887311E0,-2.208723732E0,3.390109039E0
1.213239458E1,1.788324422E0,-1.828826038E0,-3.000821771E0,3.943049609E0
1.214247358E1,1.834786105E0,-1.786102772E0,-4.069131167E0,4.807747042E0
1.215255258E1,2.702912858E0,-1.353648550E0,-4.969631613E0,5.816815339E0
1.216263158E1,3.809530287E0,-1.087424237E0,-5.025818093E0,6.399520293E0
1.217270958E1,4.656178170E0,-1.078097343E0,-3.721836963E0,6.057586929E0
1.218278858E1,5.316065108E0,-1.174978690E0,-1.826514049E0,5.742584498E0
1.219286758E1,5.771366740E0,-1.425152981E0,-4.512916124E-1,5.961828511E0
1.220294658E1,6.596194861E0,-1.561105422E0,1.068347695E-1,6.779251467E0
1.221302558E1,7.178509712E0,-1.593966190E0,-7.439938724E-1,7.390890121E0
1.222310458E1,6.887407250E0,-1.491091447E0,-3.136270475E0,7.713360152E0
1.223318358E1,6.325995026E0,-8.353396600E-1,-6.037975216E0,8.784824991E0
1.224326258E1,5.643227348E0,-1.530701655E-1,-7.972180359E0,9.768577433E0
1.225334158E1,5.202871199E0,-2.274502569E-1,-7.554927728E0,9.175975987E0
1.226342058E1,5.264872735E0,-1.358447945E0,-5.669344522E0,7.855299678E0
1.227349958E1,4.910472994E0,-2.572859087E0,-3.821468547E0,6.733199148E0
1.228357758E1,4.168825024E0,-3.414678047E0,-2.767248017E0,6.057787536E0
1.229365658E1,3.616413419E0,-4.403742176E0,-1.753139094E0,5.961953358E0
1.230373558E1,3.208756361E0,-5.261660859E0,-3.148497587E-1,6.170925599E0
1.231381458E1,2.561326039E0,-5.425013938E0,9.218562323E-1,6.069677604E0
1.232389358E1,1.903305532E0,-4.731523052E0,1.506638024E0,5.317879321E0
1.233397258E1,1.823917885E0,-3.857726254E0,1.611230825E0,4.561227146E0
1.234405158E1,2.169402084E0,-3.547272432E0,2.158855754E0,4.685093945E0
1.235413058E1,2.547069650E0,-3.949817562E0,3.348138487E0,5.770498584E0
1.236420958E1,2.686600880E0,-4.888163527E0,5.049353136E0,7.523824430E0
1.237428858E1,2.857356534E0,-6.384240895E0,7.246321626E0,1.007135519E1
1.238436758E1,1.997699474E0,-6.906614769E0,8.311600703E0,1.098976055E1
1.239444658E1,8.573819089E-1,-6.273874699E0,7.550401983E0,9.854195938E0
1.240452458E1,-9.359871984E-2,-5.101797983E0,6.560359615E0,8.311162473E0
1.241460358E1,-9.446668053E-1,-4.017860441E0,5.597932477E0,6.955030260E0
1.242468258E1,-1.268862169E0,-2.756987323E0,4.265312269E0,5.234871446E0
1.243476158E1,-1.170428971E0,-1.554146651E0,2.651102141E0,3.288406659E0
1.244484058E1,-8.604592985E-1,-4.214497626E-1,1.333512347E0,1.642030842E0
1.245491958E1,-7.573442352E-1,5.261640394E-1,4.247753665E-1,1.015309312E0
1.246499858E1,-5.877252799E-1,1.633745382E0,5.220994936E-1,1.813045190E0
1.247507758E1,-8.687424642E-1,2.471080697E0,1.739418164E0,3.144285106E0
1.248515658E1,-1.549093487E0,2.988247626E0,3.151731390E0,4.611152270E0
1.249523558E1,-2.147612143E0,3.619748670E0,4.606454325E0,6.239730747E0
1.250531458E1,-2.988420119E0,4.220479327E0,6.176534346E0,8.055599114E0
1.251539258E1,-3.760933785E0,4.831848993E0,7.060714629E0,9.345858907E0
1.252547158E1,-3.974144903E0,5.412078143E0,7.450989962E0,1.003003833E1
1.253555058E1,-3.544887353E0,5.530388365E0,7.688934216E0,1.011291902E1
1.254562958E1,-3.263619323E0,5.385555173E0,6.064763650E0,8.742812690E0
1.255570858E1,-3.652471443E0,5.230026253E0,3.142243406E0,7.111076984E0
1.256578758E1,-4.098356135E0,4.648104334E0,2.392128668E0,6.642565504E0
1.257586658E1,-4.608379521E0,4.189252857E0,3.856318245E0,7.325175200E0
1.258594558E1,-5.435666395E0,3.901181592E0,4.325598816E0,7.967213571E0
1.259602458E1,-5.816786742E0,3.773793567E0,4.511863917E0,8.272450779E0
1.260610358E1,-6.646469221E0,3.732643202E0,4.900123715E0,9.061974994E0
1.261618258E1,-7.306465502E0,3.796573150E0,5.088683263E0,9.679519779E0
1.262626158E1,-6.809314177E0,4.181000097E0,4.361248705E0,9.103186895E0
1.263633958E1,-7.034361228E0,4.409977062E0,3.014403976E0,8.832710054E0
1.264641858E1,-6.512249894E0,4.194852151E0,7.902234212E-1,7.786567684E0
1.265649758E1,-5.586784176E0,3.593039759E0,-2.430458628E0,7.073133766E0
1.266657658E1,-4.146826045E0,2.458079413E0,-4.831973247E0,6.825414720E0
1.267665558E1,-2.257911095E0,4.318045968E-1,-6.278751862E0,6.686354961E0
1.268673458E1,1.553552574E-1,-3.187151191E0,-6.696747090E0,7.418119004E0
1.269681358E1,3.997796890E0,-9.458658353E0,-7.489703207E0,1.271000598E1
1.270689258E1,8.279853830E0,-1.535401764E1,-1.364845032E1,2.214908651E1
1.271697158E1,1.164663733E1,-1.638493672E1,-1.915474641E1,2.776715006E1
1.272705058E1,1.234882128E1,-1.287915321E1,-1.294533317E1,2.204421977E1
1.273712958E1,8.198026725E0,-6.075682740E0,-4.943947134E0,1.133861439E1
1.274720858E1,3.885680038E0,-5.991390449E-1,-4.319358668E-1,3.955255434E0
1.275728658E1,1.178675299E0,3.091719369E0,2.351802760E0,4.059431037E0
1.276736558E1,-3.008018231E-1,5.713688636E0,4.071603077E0,7.022440543E0
1.277744458E1,-1.319374511E0,7.594140326E0,4.009551255E0,8.688395574E0
1.278752358E1,-2.146968364E0,8.665268372E0,1.845630059E0,9.116068200E0
1.279760258E1,-2.071009524E0,8.204846333E0,2.749303789E-1,8.466650489E0
1.280768158E1,-5.063273603E-1,5.646003606E0,1.332056537E0,5.823066094E0
1.281776058E1,2.388430889E0,2.080216550E0,4.873699855E0,5.812473938E0
1.282783958E1,3.919889174E0,-2.323420376E0,8.295069455E0,9.464248023E0
1.283791858E1,4.660352497E0,-8.437602353E0,1.146743304E1,1.498045524E1
1.284799758E1,4.409092963E0,-1.338356561E1,1.078121199E1,1.774244800E1
1.285807658E1,2.369993448E-1,-1.419120993E1,4.770240390E0,1.497336974E1
1.286815458E1,-5.256090217E0,-1.085149202E1,3.306989876E0,1.250270153E1
1.287823358E1,-7.308452970E0,-6.656217699E0,2.568412864E0,1.021349419E1
1.288831258E1,-8.181439928E0,-3.172551278E0,-4.161672418E-1,8.784886800E0
1.289839158E1,-8.279153334E0,-2.560185832E-1,-1.687626598E0,8.453283917E0
1.290847058E1,-7.816819255E0,2.324255358E0,-8.870575516E-1,8.203151671E0
1.291854958E1,-7.155527231E0,4.064766805E0,8.160898952E-1,8.269818732E0
1.292862858E1,-6.486639674E0,4.740740603E0,2.553621747E0,8.430427021E0
1.293870758E1,-5.393560011E0,4.514538141E0,3.401328853E0,7.812847252E0
1.294878658E1,-3.877047794E0,3.943737627E0,3.490176126E0,6.539563858E0
1.295886558E1,-2.303403018E0,2.776378444E0,3.798995066E0,5.238922240E0
1.296894358E1,-1.933732688E-2,1.451430953E0,4.827796288E0,5.041293757E0
1.297902258E1,1.866063446E0,1.399256247E-1,5.987049476E0,6.272681515E0
1.298910158E1,3.287698157E0,-8.253111005E-1,7.100128371E0,7.867777353E0
1.299918058E1,4.896908038E0,-1.065373217E0,7.368053640E0,8.910832894E0
1.300926133E1,5.883354954E0,-5.976368952E-1,6.729310234E0,8.958496056E0
1.301934033E1,5.257063778E0,6.558412492E-2,4.435418297E0,6.878514107E0
1.302941933E1,3.894284216E0,1.318143672E0,2.265320102E0,4.694105608E0
1.303949833E1,2.315161768E0,2.194092245E0,8.205896200E-1,3.293536415E0
1.304957733E1,7.746812296E-1,2.753701188E0,-7.841835397E-1,2.966133015E0
1.305965633E1,-3.203759623E-1,2.992694433E0,-2.738854523E0,4.069420699E0
1.306973533E1,-8.933218199E-1,2.658703229E0,-2.397667735E0,3.689923753E0
1.307981433E1,-9.681609178E-1,2.158435339E0,-1.064423044E0,2.594065360E0
1.308989233E1,-9.891822428E-1,1.650927426E0,-3.108555257E-1,1.949531747E0
1.309997133E1,-9.521629357E-1,1.208653389E0,1.527491534E-1,1.546217829E0
1.311005033E1,-9.650425977E-1,9.638404101E-1,1.163487741E-1,1.368880049E0
1.312012933E1,-1.061619304E0,8.175974536E-1,-5.550209257E-1,1.450361807E0
1.313020833E1,-1.116705923E0,8.847609115E-1,-1.025977309E0,1.755694571E0
1.314028733E1,-1.023744550E0,1.209016501E0,-1.269943611E0,2.030401581E0
1.315036633E1,-8.045148933E-1,1.551028916E0,-1.474207904E0,2.286093580E0
1.316044533E1,-2.832996449E-1,1.674334415E0,-1.875278951E0,2.529886472E0
1.317052433E1,2.824547222E-1,1.418233386E0,-2.406796993E0,2.807817368E0
1.318060333E1,6.795794830E-1,9.831537634E-1,-2.906177276E0,3.142337658E0
1.319068233E1,9.505391639E-1,6.030958557E-1,-3.149763510E0,3.344885571E0
1.320076033E1,1.128836849E0,3.353512663E-1,-3.071591499E0,3.289590771E0
1.321083933E1,1.318325228E0,6.851241052E-2,-2.709602657E0,3.014070655E0
1.322091833E1,1.685750518E0,-2.090829831E-1,-2.217762358E0,2.793553361E0
1.323099733E1,2.173505660E0,-3.691622061E-1,-1.854024614E0,2.880592796E0
1.324107633E1,2.780137619E0,-4.254206067E-1,-1.783378555E0,3.330253285E0
1.325115533E1,3.528606366E0,-4.195926869E-1,-2.234763138E0,4.197771693E0
1.326123433E1,4.305374174E0,-4.587204999E-1,-2.935764772E0,5.231193561E0
1.327131333E1,5.068784603E0,-7.752694595E-1,-3.077918186E0,5.980568573E0
1.328139233E1,5.520361560E0,-1.402269902E0,-2.291768813E0,6.139459009E0
1.329147133E1,5.547585611E0,-1.966035047E0,-1.514659819E0,6.077433199E0
1.330155033E1,4.979827988E0,-2.448937876E0,-1.642418265E0,5.787358747E0
1.331162833E1,3.948584092E0,-2.882098442E0,-2.669780779E0,5.570057197E0
1.332170733E1,2.707069351E0,-3.004207016E0,-4.563436652E0,6.097412430E0
1.333178633E1,1.543518167E0,-2.505727789E0,-6.292763545E0,6.946941278E0
1.334186533E1,1.376721955E0,-1.361497267E0,-6.594875144E0,6.873239143E0
1.335194433E1,2.445529242E0,-7.026704299E-1,-5.706159176E0,6.247768526E0
1.336202333E1,4.214388868E0,-1.198071683E0,-4.121201792E0,6.015043931E0
1.337210233E1,4.770334238E0,-2.358810064E0,-2.646949157E0,5.943602737E0
1.338218133E1,4.376944971E0,-3.334831978E0,-1.373677895E0,5.671485040E0
1.339226033E1,4.204085781E0,-3.864342379E0,-3.844520903E-1,5.723223103E0
1.340233933E1,4.450988263E0,-4.075836754E0,4.195482481E-1,6.049773756E0
1.341241733E1,4.621455941E0,-3.919903207E0,1.116321469E0,6.161953407E0
1.342249633E1,4.359900922E0,-3.077779607E0,1.179860530E0,5.465668690E0
1.343257533E1,3.649306638E0,-2.015608326E0,6.643382768E-1,4.221547253E0
1.344265433E1,2.790885971E0,-1.724104160E0,1.384831166E-1,3.283406346E0
1.345273333E1,2.401224597E0,-2.419066790E0,2.148066764E-1,3.415246054E0
1.346281233E1,2.287555017E0,-3.502814298E0,6.155537872E-1,4.228654919E0
1.347289133E1,2.414956198E0,-4.630884284E0,1.536822520E0,5.444164413E0
1.348297033E1,2.314196978E0,-5.715364448E0,3.424509555E0,7.053237846E0
1.349304933E1,1.711808635E0,-6.850727667E0,5.057876623E0,8.685900891E0
1.350312833E1,4.139185488E-1,-7.375676655E0,6.134154897E0,9.602072223E0
1.351320733E1,-9.749811101E-1,-6.724523703E0,6.366381744E0,9.311316970E0
1.352328533E1,-2.222098653E0,-5.637852588E0,5.816151735E0,8.399447912E0
1.353336433E1,-2.551705030E0,-4.051669042E0,4.537886074E0,6.596941004E0
1.354344333E1,-1.953733090E0,-2.136128796E0,2.722262464E0,3.973768003E0
1.355352233E1,-1.119973347E0,-3.777184367E-1,9.708284175E-1,1.529548735E0
1.356360133E1,-5.497710031E-1,1.048574166E0,-4.000279033E-1,1.249711271E0
1.357368033E1,-4.642812020E-1,2.231526119E0,2.456014761E-1,2.292506475E0
1.358375933E1,-7.010852498E-1,3.162506931E0,2.137274265E0,3.880839072E0
1.359383833E1,-1.148677914E0,3.629455048E0,3.755559317E0,5.347581760E0
1.360391733E1,-1.805482199E0,4.115535840E0,5.073126161E0,6.777463409E0
1.361399633E1,-2.382661441E0,4.554812593E0,6.435311061E0,8.236299033E0
1.362407533E1,-2.560254829E0,4.788535159E0,7.219591080E0,9.033685246E0
1.363415333E1,-3.198212369E0,4.751557952E0,8.328244218E0,1.010769593E1
1.364423233E1,-3.248588471E0,4.673606381E0,8.036120247E0,9.847596269E0
1.365431133E1,-3.186261830E0,4.338895969E0,6.556235574E0,8.483071825E0
1.366439033E1,-3.427699796E0,3.777898897E0,2.698612815E0,5.770975402E0
1.367446933E1,-3.610903587E0,3.416324623E0,1.509255530E0,5.194973619E0
1.368454833E1,-3.663698097E0,3.364839889E0,2.741048690E0,5.679628434E0
1.369462733E1,-4.181557336E0,3.563814790E0,3.831889747E0,6.698475696E0
1.370470633E1,-4.836720893E0,3.719322075E0,4.302871274E0,7.466051627E0
1.371478533E1,-5.186591966E0,3.936486495E0,4.737762616E0,8.052518659E0
1.372486433E1,-5.467999744E0,4.136810934E0,4.978449215E0,8.473321809E0
1.373494233E1,-6.248542807E0,4.345222072E0,4.592377153E0,8.889047755E0
1.374502133E1,-6.265263505E0,4.475583991E0,3.321439223E0,8.385483728E0
1.375510033E1,-6.012100702E0,4.446918016E0,1.150609834E0,7.565998789E0
1.376517933E1,-5.655611166E0,4.117217499E0,-1.367386875E0,7.127914454E0
1.377525833E1,-4.384464490E0,3.493000331E0,-3.715507936E0,6.725294001E0
1.378533733E1,-2.762043995E0,2.077158456E0,-5.760269895E0,6.717453650E0
1.379541633E1,-8.491221321E-1,-8.059071153E-1,-7.065457306E0,7.161786203E0
1.380549533E1,1.945394375E0,-5.825868638E0,-7.914525644E0,1.001823442E1
1.381557433E1,6.345698973E0,-1.225749011E1,-1.168541139E1,1.808487762E1
1.382565333E1,1.040232996E1,-1.658854613E1,-1.649237346E1,2.560052175E1
1.383573233E1,1.274078704E1,-1.547564323E1,-1.450668125E1,2.474402935E1
1.384581033E1,1.117921910E1,-9.709163012E0,-6.605957372E0,1.621361955E1
1.385588933E1,6.228702620E0,-3.203785350E0,-1.068181050E0,7.085336100E0
1.386596833E1,2.618084961E0,1.298317518E0,1.275999280E0,3.188757031E0
1.387604733E1,3.009977049E-1,4.058572265E0,2.741974889E0,4.907243090E0
1.388612633E1,-1.135154473E0,6.081697186E0,4.056495042E0,7.398024626E0
1.389620533E1,-2.130797305E0,7.106138139E0,3.285478847E0,8.113683976E0
1.390628433E1,-2.663107937E0,6.278540778E0,1.820245542E0,7.058718865E0
1.391636333E1,-1.373847756E0,3.941171284E0,1.332116471E0,4.381189683E0
1.392644233E1,1.203481527E0,9.196793139E-1,1.641707682E0,2.233692445E0
1.393652133E1,3.238467525E0,-2.168783156E0,4.919593481E0,6.276439461E0
1.394659933E1,3.406301326E0,-5.658854032E0,8.852772206E0,1.104522944E1
1.395667833E1,2.489667826E0,-9.622675676E0,9.349737589E0,1.364594907E1
1.396675733E1,-5.229276055E-1,-1.034774737E1,5.316942190E0,1.164556582E1
1.397683633E1,-4.379751050E0,-7.704179662E0,4.719719570E0,1.004053566E1
1.398691533E1,-6.194667732E0,-4.602291985E0,4.433829316E0,8.900215852E0
1.399699433E1,-6.744321790E0,-1.469086035E0,2.902265489E0,7.487805764E0
1.400707171E1,-6.921570193E0,8.416651779E-1,1.826271390E0,7.207759804E0
1.401715071E1,-6.715637105E0,2.925868360E0,1.556203701E0,7.488808806E0
1.402722971E1,-6.306994498E0,4.254000245E0,2.235010475E0,7.929058551E0
1.403730871E1,-5.730887636E0,4.907573360E0,2.634659479E0,7.991794538E0
1.404738671E1,-3.758304585E0,4.327834792E0,2.791678269E0,6.375615648E0
1.405746571E1,-2.242727338E0,3.638398365E0,2.898025673E0,5.163944362E0
1.406754471E1,-6.317574450E-1,2.568822169E0,3.994303764E0,4.790869166E0
1.407762371E1,1.244573712E0,1.597222504E0,5.133426157E0,5.518346452E0
1.408770271E1,2.882528505E0,4.331892174E-1,6.241586959E0,6.888688645E0
1.409778171E1,3.991930671E0,-4.984266025E-1,5.964652886E0,7.194513438E0
1.410786071E1,4.994852409E0,-8.297549844E-1,4.862894785E0,7.020312643E0
1.411793971E1,5.776837395E0,-5.046076941E-1,2.886038296E0,6.477321689E0
1.412801871E1,5.340485419E0,2.212691653E-1,-1.983020623E0,5.701062651E0
1.413809771E1,4.472496076E0,1.121842117E0,-6.249930936E0,7.766813220E0
1.414817671E1,2.664147572E0,1.763703259E0,-5.193585235E0,6.097676530E0
1.415825471E1,1.016102824E0,2.460087932E0,-3.613000399E0,4.487568324E0
1.416833371E1,1.826196545E-1,2.830220776E0,-1.546050012E0,3.230134705E0
1.417841271E1,-4.028813446E-1,2.499205220E0,-1.548635066E-3,2.531470424E0
1.418849171E1,-9.533399802E-1,1.830063894E0,4.922358629E-1,2.121388017E0
1.419857071E1,-1.330077254E0,1.217386791E0,4.471061754E-1,1.857697508E0
1.420864971E1,-1.564069376E0,8.244205695E-1,2.421121502E-1,1.784544923E0
1.421872871E1,-1.570672052E0,6.633467352E-1,-1.661673439E-1,1.713082360E0
1.422880771E1,-1.294754809E0,7.817353106E-1,-6.387322962E-1,1.641791417E0
1.423888671E1,-8.143054712E-1,1.008216099E0,-7.142230663E-1,1.479766093E0
1.424896571E1,-4.036713034E-1,1.140894685E0,-8.417824146E-1,1.474173951E0
1.425904371E1,-1.605440766E-1,1.148693116E0,-1.108652553E0,1.604487694E0
1.426912271E1,1.382550752E-1,1.206768247E0,-1.423862793E0,1.871574022E0
1.427920171E1,2.513001725E-1,1.238980558E0,-1.685309054E0,2.106772699E0
1.428928071E1,4.201563585E-1,1.286031933E0,-1.649662965E0,2.133494175E0
1.429935971E1,5.995173597E-1,1.239855886E0,-1.525990261E0,2.055555876E0
1.430943871E1,8.509701446E-1,7.973923999E-1,-1.439046257E0,1.852252401E0
1.431951771E1,1.227077089E0,-4.163100600E-2,-1.688610976E0,2.087787909E0
1.432959671E1,1.624719328E0,-9.801658362E-1,-2.206673114E0,2.910299674E0
1.433967571E1,1.985330858E0,-1.802015385E0,-2.914239417E0,3.959998667E0
1.434975371E1,2.421980166E0,-2.120575787E0,-3.733451872E0,4.929654397E0
1.435983271E1,3.024339857E0,-1.647995632E0,-4.116601787E0,5.367395220E0
1.436991171E1,3.718763081E0,-7.506006414E-1,-3.614582363E0,5.240019641E0
1.437999071E1,4.275523846E0,-1.051124722E-1,-2.675114317E0,5.044540554E0
1.439006971E1,4.602364490E0,-1.251596510E-2,-1.867685172E0,4.966906829E0
1.440014871E1,5.071832757E0,-4.312865335E-1,-1.043669814E0,5.196031396E0
1.441022771E1,5.553463233E0,-9.553900141E-1,-4.583360454E-1,5.653653322E0
1.442030671E1,5.544934484E0,-1.454631718E0,-4.457578075E-1,5.749865380E0
1.443038571E1,4.836225049E0,-1.604184784E0,-1.549935486E0,5.325859702E0
1.444046471E1,3.781952479E0,-1.254011410E0,-3.471800666E0,5.284799810E0
1.445054371E1,3.164815997E0,-2.253370732E-1,-5.540190638E0,6.384398906E0
1.446062171E1,3.782643620E0,5.641960841E-1,-6.390892103E0,7.447832695E0
1.447070071E1,4.912271597E0,-2.004168248E-1,-5.204939944E0,7.159747130E0
1.448077971E1,5.213613703E0,-1.848054607E0,-3.269024782E0,6.425231257E0
1.449085871E1,5.136352689E0,-3.065689319E0,-1.864109015E0,6.265418770E0
1.450093771E1,5.017545453E0,-3.873230731E0,-1.024935335E0,6.420916688E0
1.451101671E1,4.800260288E0,-4.441131027E0,-3.586527130E-1,6.549410309E0
1.452109571E1,4.143321224E0,-4.493561255E0,-2.113090181E-1,6.115869114E0
1.453117471E1,2.788883300E0,-3.851783144E0,2.300586998E-2,4.755484489E0
1.454125371E1,1.408762943E0,-2.969409066E0,3.238071084E-1,3.302552691E0
1.455133171E1,9.441177517E-1,-2.569888701E0,5.813260871E-1,2.798861605E0
1.456141071E1,1.349566609E0,-3.027229258E0,1.088915277E0,3.488722330E0
1.457148971E1,2.118631588E0,-3.683763987E0,2.202595850E0,4.786454366E0
1.458156871E1,2.497474152E0,-4.435808306E0,3.693803072E0,6.289511396E0
1.459164771E1,2.439491992E0,-5.244078866E0,5.254015625E0,7.813844413E0
1.460172671E1,1.495037440E0,-5.996152421E0,6.117028402E0,8.695229570E0
1.461180571E1,3.320262471E-1,-5.740827318E0,5.650978417E0,8.062313365E0
1.462188471E1,-3.438162804E-1,-4.696212886E0,4.863139783E0,6.769250598E0
1.463196371E1,-8.933428699E-1,-3.398909860E0,3.134308734E0,4.708985131E0
1.464204271E1,-5.234538549E-1,-1.856321985E0,1.800407839E0,2.638447202E0
1.465212071E1,2.659939331E-1,-3.592003047E-1,6.011088257E-1,7.490723941E-1
1.466219971E1,8.383135539E-1,8.886101335E-1,-4.969631906E-1,1.318851772E0
1.467227871E1,9.762008393E-1,2.163719468E0,4.715229785E-1,2.420120644E0
1.468235771E1,9.754863095E-1,3.218712122E0,2.438566524E0,4.154309564E0
1.469243671E1,5.900448704E-1,3.548698568E0,3.854619044E0,5.272523348E0
1.470251571E1,6.113731742E-2,4.043222154E0,4.900034544E0,6.353087572E0
1.471259471E1,-5.015443379E-1,4.453890821E0,6.037652450E0,7.519437297E0
1.472267371E1,-1.038756106E0,4.832489263E0,7.108053102E0,8.657735595E0
1.473275271E1,-1.728162128E0,4.908570310E0,7.671139970E0,9.269681508E0
1.474283171E1,-2.183725716E0,4.679147787E0,7.526551191E0,9.127543746E0
1.475290971E1,-2.449961139E0,4.393940488E0,6.576235975E0,8.279849165E0
1.476298871E1,-3.144019790E0,4.122816793E0,4.900549099E0,7.134273629E0
1.477306771E1,-3.797388836E0,3.425628712E0,3.676797615E0,6.298724851E0
1.478314671E1,-4.838983766E0,2.668137712E0,2.998751564E0,6.287068767E0
1.479322571E1,-5.309810926E0,2.270037636E0,3.255140276E0,6.628959281E0
1.480330471E1,-5.781063763E0,2.210571452E0,3.871929434E0,7.300627502E0
1.481338371E1,-6.557208551E0,2.281213419E0,4.501748234E0,8.274458037E0
1.482346271E1,-6.579295238E0,2.814211684E0,4.800757594E0,8.617086904E0
1.483354171E1,-7.294245991E0,3.384610494E0,5.075128248E0,9.508866362E0
1.484361971E1,-7.494597327E0,3.884681919E0,4.898122213E0,9.759679498E0
1.485369871E1,-7.233620889E0,4.255062684E0,3.694069413E0,9.169349947E0
1.486377771E1,-6.654359454E0,4.181617563E0,1.833139529E0,8.070119312E0
1.487385671E1,-5.859216478E0,3.509081928E0,-6.398349349E-1,6.859552643E0
1.488393571E1,-4.815004919E0,2.373036924E0,-3.303024879E0,6.302820794E0
1.489401471E1,-3.548323177E0,6.964688730E-1,-4.872847038E0,6.067973675E0
1.490409371E1,-1.905111737E0,-1.773672177E0,-5.752560925E0,6.314057406E0
1.491417271E1,5.717156035E-1,-5.585962057E0,-6.418421963E0,8.527952353E0
1.492425171E1,4.185569696E0,-1.066469102E1,-8.507706960E0,1.427009832E1
1.493433071E1,7.609812033E0,-1.452883167E1,-1.354160064E1,2.126901824E1
1.494440871E1,1.059627509E1,-1.465250964E1,-1.584784424E1,2.404436008E1
1.495448771E1,1.061807585E1,-9.430538508E0,-1.020499111E1,1.748772240E1
1.496456671E1,7.083491873E0,-3.337327570E0,-4.526598608E0,9.044540198E0
1.497464571E1,3.653667199E0,1.148991324E0,-9.378572841E-1,3.943227276E0
1.498472471E1,1.292735181E0,3.919607922E0,1.837100433E0,4.517679550E0
1.499480371E1,-1.037319446E-1,5.792996761E0,3.338873574E0,6.687125580E0
1.500488583E1,-9.597754258E-1,6.931664826E0,3.097109917E0,7.652531344E0
1.501496483E1,-1.141435552E0,6.550390697E0,1.541181181E0,6.825374190E0
1.502504383E1,6.096131623E-2,4.096506076E0,6.135224645E-1,4.142642651E0
1.503512283E1,2.380160002E0,9.244483030E-1,1.285996703E0,2.858942780E0
1.504520083E1,5.392137968E0,-2.970146400E0,4.919381812E0,7.880180132E0
1.505527983E1,6.102070055E0,-6.825278830E0,9.232833037E0,1.300249576E1
1.506535883E1,3.993503280E0,-1.062168241E1,1.147226518E1,1.613632777E1
1.507543783E1,-2.583422667E-1,-1.115824280E1,8.658572141E0,1.412600420E1
1.508551683E1,-5.739289500E0,-7.936763774E0,4.117413965E0,1.062472404E1
1.509559583E1,-8.368337991E0,-4.117887590E0,7.539912955E-1,9.357060532E0
1.510567483E1,-9.571902548E0,-1.038391240E0,-3.670762703E0,1.030408043E1
1.511575383E1,-1.002277316E1,1.300307910E0,-4.722903671E0,1.115583263E1
1.512583283E1,-9.076113040E0,3.723202288E0,-2.337986813E0,1.008485228E1
1.513591083E1,-7.507369984E0,5.346222707E0,1.131788231E0,9.285668846E0
1.514598983E1,-6.529204481E0,6.015433030E0,3.444808749E0,9.522743985E0
1.515606883E1,-5.162599670E0,5.177344009E0,4.624765173E0,8.651345517E0
1.516614783E1,-3.595756960E0,3.930158054E0,5.206819239E0,7.448931267E0
1.517622683E1,-1.716748363E0,2.429785906E0,5.627394258E0,6.365426193E0
1.518630583E1,-2.117218316E-1,1.007916137E0,6.288251249E0,6.372034592E0
1.519638483E1,1.208749284E0,-1.214209414E-1,7.125494177E0,7.228311362E0
1.520646383E1,2.478597293E0,-1.332887426E0,7.388134732E0,7.905983067E0
1.521654283E1,3.504356208E0,-2.059489340E0,7.242099352E0,8.304818589E0
1.522662183E1,3.914393376E0,-1.759624241E0,6.042289876E0,7.411344002E0
1.523669983E1,4.558896289E0,-1.060738714E0,4.478789727E0,6.478291396E0
1.524677883E1,4.422084306E0,-2.133719158E-1,2.449613814E0,5.059739621E0
1.525685783E1,3.453530456E0,8.407582748E-1,-5.248145020E-1,3.592934364E0
1.526693683E1,2.386380270E0,1.726779846E0,-5.617458084E0,6.342902708E0
1.527701583E1,1.318980408E0,1.956193598E0,-6.109165066E0,6.548915980E0
1.528709483E1,3.733733708E-1,2.097767553E0,-3.725154673E0,4.291481529E0
1.529717383E1,-1.044184077E-1,2.222690976E0,-1.717001986E0,2.810578979E0
1.530725283E1,-4.490573913E-1,1.949108527E0,3.672451964E-1,2.033604097E0
1.531733083E1,-8.140850312E-1,1.670760012E0,1.687406742E0,2.510281850E0
1.532740983E1,-1.208316590E0,1.578390377E0,1.450183741E0,2.460564579E0
1.533748883E1,-1.631187810E0,1.597827106E0,3.693908322E-1,2.313066086E0
1.534756783E1,-1.860998588E0,1.665798064E0,-2.289620546E-1,2.508111353E0
1.535764683E1,-1.933060259E0,1.866893751E0,-4.723354492E-1,2.728573807E0
1.536772583E1,-1.837769355E0,2.009202116E0,-6.706493229E-1,2.804293112E0
1.537780483E1,-1.623689926E0,1.971365368E0,-8.758810374E-1,2.699966293E0
1.538788383E1,-1.139191683E0,1.622360854E0,-1.222352538E0,2.328939278E0
1.539796283E1,-2.675896382E-1,1.028296022E0,-1.945626510E0,2.216858011E0
1.540804183E1,6.185292891E-1,2.371683294E-1,-2.876751748E0,2.952037926E0
1.541811983E1,1.173493497E0,-5.966533935E-1,-3.690866600E0,3.918619466E0
1.542819883E1,1.793715847E0,-1.333565118E0,-4.076905040E0,4.649405034E0
1.543827783E1,2.361802669E0,-1.763569357E0,-4.194003135E0,5.126202397E0
1.544835683E1,2.798241768E0,-1.726163549E0,-3.953076215E0,5.141654321E0
1.545843583E1,3.386723093E0,-1.378602712E0,-3.554042923E0,5.099182273E0
1.546851483E1,4.162407120E0,-1.178574142E0,-3.309722572E0,5.446919639E0
1.547859383E1,5.030951364E0,-1.421158748E0,-3.035256316E0,6.045076072E0
1.548867283E1,5.639987991E0,-1.893433093E0,-2.481039967E0,6.445937692E0
1.549875183E1,6.034953375E0,-2.330490829E0,-1.430010263E0,6.625464443E0
1.550882983E1,6.060527927E0,-2.606262476E0,-8.523269910E-1,6.651997004E0
1.551890883E1,5.726082394E0,-2.805372448E0,-1.184484508E0,6.485455860E0
1.552898783E1,4.929003990E0,-2.984584930E0,-2.806887462E0,6.409480849E0
1.553906683E1,4.175998973E0,-2.612585070E0,-5.545542594E0,7.417385714E0
1.554914583E1,4.120669403E0,-1.605437257E0,-8.110698559E0,9.238007157E0
1.555922483E1,4.689473970E0,-8.161555302E-1,-8.381687184E0,9.638981067E0
1.556930383E1,5.430520846E0,-1.227363895E0,-6.430340928E0,8.505660658E0
1.557938283E1,5.612584430E0,-2.521502992E0,-4.064055784E0,7.373983370E0
1.558946183E1,5.321584879E0,-3.549458706E0,-2.122659442E0,6.739703691E0
1.559953983E1,4.723086689E0,-4.057776459E0,-1.327944190E0,6.366830721E0
1.560961883E1,4.174364676E0,-4.459921639E0,-4.746293119E-1,6.127111429E0
1.561969783E1,3.284459677E0,-4.297784196E0,4.684122598E-1,5.429367773E0
1.562977683E1,1.983403616E0,-3.844951258E0,9.157774669E-1,4.422237946E0
1.563985583E1,1.080664855E0,-3.271472719E0,5.848525429E-1,3.494627702E0
1.564993483E1,9.572465050E-1,-3.007189096E0,2.910106605E-1,3.169257695E0
1.566001383E1,1.431607137E0,-3.294635294E0,9.469877113E-1,3.714957125E0
1.567009283E1,1.817836781E0,-3.706254718E0,2.588912033E0,4.872711782E0
1.568017183E1,1.795204548E0,-4.572531411E0,4.550001504E0,6.695768557E0
1.569024983E1,1.623319797E0,-5.990274800E0,7.011313258E0,9.363603631E0
1.570032883E1,4.331266522E-1,-5.944894559E0,8.425005696E0,1.032037262E1
1.571040783E1,-7.408328676E-1,-5.558599427E0,7.349070069E0,9.244224781E0
1.572048683E1,-1.370448770E0,-4.365684988E0,5.784852759E0,7.375761431E0
1.573056583E1,-1.630294940E0,-3.254186595E0,4.207028393E0,5.562974014E0
1.574064483E1,-1.365384496E0,-2.021397654E0,2.462037978E0,3.465826641E0
1.575072383E1,-1.103078987E0,-6.771028948E-1,9.869700949E-1,1.627685949E0
1.576080283E1,-7.627271819E-1,6.905462283E-1,-1.384164584E-1,1.038155077E0
1.577088183E1,-6.789845288E-1,1.537938754E0,-7.115907960E-1,1.825551167E0
1.578095983E1,-8.829383343E-1,2.233134688E0,6.500861272E-1,2.487786689E0
1.579103883E1,-1.287883161E0,2.771031166E0,2.541270089E0,3.974331444E0
1.580111783E1,-1.888869926E0,3.093424417E0,4.175157559E0,5.528928003E0
1.581119683E1,-2.824272403E0,3.436564175E0,6.097727913E0,7.547766135E0
1.582127583E1,-3.262722360E0,3.992147310E0,6.992332027E0,8.687652417E0
1.583135483E1,-3.347833262E0,4.441651429E0,7.401281612E0,9.258251696E0
1.584143383E1,-3.688376271E0,4.810173365E0,8.030754257E0,1.006155561E1
1.585151283E1,-4.618756574E0,4.893840004E0,8.043255605E0,1.048697015E1
1.586159183E1,-5.473555183E0,4.909947329E0,7.300921172E0,1.036199011E1
1.587166983E1,-5.918592029E0,4.901816191E0,4.953609073E0,9.143072592E0
1.588174883E1,-6.348397463E0,4.620606633E0,1.312299087E0,7.960796751E0
1.589182783E1,-6.637821189E0,4.352362107E0,6.414380953E-1,7.963364169E0
1.590190683E1,-6.627083362E0,4.363080638E0,1.389103142E0,8.055080017E0
1.591198583E1,-6.644669448E0,4.472879069E0,1.521743428E0,8.153157812E0
1.592206483E1,-6.655859265E0,4.536217863E0,1.836563366E0,8.261398190E0
1.593214383E1,-6.304969023E0,4.490969769E0,1.887331232E0,7.967651036E0
1.594222283E1,-5.470293607E0,4.157580829E0,1.087698471E0,6.956484633E0
1.595230183E1,-4.255995900E0,3.658124532E0,-8.344172618E-1,5.673766681E0
1.596237983E1,-3.070585193E0,2.809686524E0,-3.382131275E0,5.362988323E0
1.597245883E1,-1.665136160E0,1.190231152E0,-5.870825540E0,6.217388611E0
1.598253783E1,1.854964846E-1,-1.441422274E0,-8.336722680E0,8.462449537E0
1.599261683E1,2.677092138E0,-5.920312280E0,-1.048590071E1,1.233576238E1
1.600269583E1,5.730718067E0,-1.078634234E1,-1.312877202E1,1.793184222E1
1.601277150E1,8.573022698E0,-1.476345120E1,-1.396416839E1,2.205570693E1
1.602285050E1,9.711498975E0,-1.477586250E1,-1.007213769E1,2.034913469E1
1.603292950E1,7.208300107E0,-1.066767193E1,-3.688436497E0,1.339266137E1
1.604300850E1,2.033372167E0,-4.950346912E0,7.673789343E-1,5.406422786E0
1.605308650E1,-1.441516998E0,-7.201652992E-1,2.463342784E0,2.943580641E0
1.606316550E1,-3.321013253E0,2.394902002E0,2.556103598E0,4.826836462E0
1.607324450E1,-4.330077199E0,4.473909348E0,1.475161000E0,6.398557133E0
1.608332350E1,-4.647323146E0,5.172286168E0,-5.727686870E-1,6.976977899E0
1.609340250E1,-3.455807362E0,3.765338493E0,-1.498281183E0,5.325901331E0
1.610348150E1,-5.933380222E-1,1.523711309E0,-1.869547802E-1,1.645812338E0
1.611356050E1,2.495169472E0,-7.063828272E-1,2.416835493E0,3.544847132E0
1.612363950E1,4.170978554E0,-3.252317825E0,9.105362567E0,1.053006462E1
1.613371850E1,3.338092970E0,-7.051031055E0,1.348743204E1,1.558110158E1
1.614379650E1,1.009372094E0,-1.012046610E1,1.189196194E1,1.564804860E1
1.615387550E1,-4.197542455E0,-9.320893275E0,5.587034436E0,1.164960806E1
1.616395450E1,-7.584663159E0,-6.363231264E0,2.893164883E0,1.031446704E1
1.617403350E1,-8.302162127E0,-3.144441959E0,-2.422267556E-1,8.880995723E0
1.618411250E1,-7.348177784E0,1.082804936E-1,-1.443448626E0,7.489391521E0
1.619419150E1,-5.822462634E0,2.429597041E0,6.306255703E-1,6.340481174E0
1.620427050E1,-5.094401255E0,3.590422545E0,3.408854220E0,7.103826102E0
1.621434950E1,-3.935550356E0,3.932125057E0,5.491454680E0,7.817047945E0
1.622442850E1,-2.154486714E0,3.202009551E0,6.203918027E0,7.306386046E0
1.623450650E1,-1.098245679E0,2.104786550E0,5.942580231E0,6.399260098E0
1.624458550E1,1.406255364E-3,8.610305715E-1,5.519757543E0,5.586510445E0
1.625466450E1,4.968531168E-1,-6.236874104E-2,4.371728085E0,4.400313549E0
1.626474350E1,1.320469109E0,-7.144239181E-1,4.034157801E0,4.304470858E0
1.627482250E1,3.137984294E0,-5.344793648E-1,4.442247845E0,5.464995840E0
1.628490150E1,4.250961447E0,-1.991777998E-1,3.729357067E0,5.658484705E0
1.629498050E1,4.961462469E0,6.987434399E-1,2.200674455E0,5.472414483E0
1.630505950E1,5.296934772E0,1.766468992E0,-4.131807033E-1,5.598986424E0
1.631513750E1,4.082534739E0,2.564680586E0,-2.686431895E0,5.519202183E0
1.632521650E1,1.564679241E0,2.628501191E0,-2.518708023E0,3.962465109E0
1.633529550E1,-2.220333964E-1,2.631638807E0,-1.549385117E0,3.061930091E0
1.634537450E1,-1.361113105E0,2.451460365E0,-5.787278768E-1,2.863077499E0
1.635545350E1,-2.072966588E0,2.224590152E0,1.909858507E-1,3.046714199E0
1.636553250E1,-2.406892887E0,1.915660699E0,8.219045126E-1,3.184087988E0
1.637561150E1,-2.364609332E0,1.618861295E0,1.120460128E0,3.076933552E0
1.638569050E1,-2.213445944E0,1.524525241E0,1.013307562E0,2.872335700E0
1.639576950E1,-2.128473621E0,1.714173249E0,4.709280244E-1,2.773186450E0
1.640584750E1,-2.031936091E0,1.905670731E0,1.713438839E-2,2.785792311E0
1.641592650E1,-1.953270575E0,2.137893485E0,-3.992136785E-1,2.923221862E0
1.642600550E1,-1.643819550E0,2.304042703E0,-9.244418710E-1,2.977473470E0
1.643608450E1,-1.146850659E0,2.236357673E0,-1.588210483E0,2.973041307E0
1.644616350E1,-5.961663204E-1,1.939814377E0,-2.187839232E0,2.984113705E0
1.645624250E1,3.649656594E-2,1.385504766E0,-2.632170904E0,2.974773793E0
1.646632150E1,6.420792425E-1,6.567037135E-1,-2.840204896E0,2.985010783E0
1.647640050E1,1.258873663E0,-2.401381302E-1,-2.803666230E0,3.082689338E0
1.648647850E1,1.855482033E0,-1.215553688E0,-2.758979470E0,3.540106221E0
1.649655750E1,2.385367240E0,-2.121570398E0,-2.896886051E0,4.310798837E0
1.650663650E1,2.726816567E0,-2.781234557E0,-3.295621135E0,5.102147873E0
1.651671550E1,2.978528969E0,-2.784120743E0,-3.862385316E0,5.616135990E0
1.652679450E1,3.318284943E0,-2.084634706E0,-4.163973590E0,5.717988534E0
1.653687350E1,3.760229488E0,-1.109892163E0,-4.013682606E0,5.610778420E0
1.654695250E1,4.274592385E0,-5.406680578E-1,-3.498179210E0,5.549929710E0
1.655703150E1,4.891851074E0,-5.725330442E-1,-2.759870585E0,5.645784858E0
1.656711050E1,5.704383377E0,-9.442095530E-1,-1.923595955E0,6.093582098E0
1.657718850E1,6.940830921E0,-1.348093695E0,-1.378544825E0,7.203671031E0
1.658726750E1,7.734206868E0,-1.510665586E0,-1.835629858E0,8.091328900E0
1.659734650E1,7.860562275E0,-1.619034373E0,-3.174025362E0,8.630419954E0
1.660742550E1,6.603022070E0,-1.882889979E0,-5.862978576E0,9.028825667E0
1.661750450E1,4.849823334E0,-2.145103687E0,-7.652568628E0,9.310427638E0
1.662758350E1,4.216162913E0,-1.993155602E0,-7.347244568E0,8.702338864E0
1.663766250E1,4.673290339E0,-2.554019358E0,-6.226299999E0,8.193257542E0
1.664774150E1,5.134119637E0,-3.810459117E0,-4.790640156E0,7.989306368E0
1.665782050E1,4.457705837E0,-4.962710264E0,-3.381076730E0,7.478724112E0
1.666789850E1,3.300229618E0,-5.964610201E0,-2.173279957E0,7.154805109E0
1.667797750E1,2.263225922E0,-6.699654325E0,-4.806031197E-2,7.071765653E0
1.668805650E1,1.392202751E0,-6.603184038E0,1.697030382E0,6.958461041E0
1.669813550E1,8.779793108E-1,-6.107739515E0,2.155218201E0,6.536076434E0
1.670821450E1,8.671555299E-1,-5.912293409E0,2.452666646E0,6.459314649E0
1.671829350E1,6.427961111E-1,-6.580748856E0,3.318629928E0,7.398158348E0
1.672837250E1,1.767320931E-2,-8.533349925E0,4.933747251E0,9.856989156E0
1.673845150E1,-1.042095451E0,-1.049420843E1,7.107063754E0,1.271710379E1
1.674852950E1,-2.557040030E0,-1.224818952E1,8.055113758E0,1.488090918E1
1.675860850E1,-4.005501181E0,-1.269690018E1,6.820396405E0,1.495904813E1
1.676868750E1,-5.550800411E0,-1.136076111E1,4.345782235E0,1.337026931E1
1.677876650E1,-6.210719508E0,-8.746896672E0,3.217815160E0,1.119980235E1
