"Time (s)","Linear Acceleration x (m/s^2)","Linear Acceleration y (m/s^2)","Linear Acceleration z (m/s^2)","Absolute acceleration (m/s^2)"
2.284999995E-3,-1.782655839E0,3.368945804E0,1.101537076E0,3.967498153E0
1.236199995E-2,-1.823048404E0,2.966664383E0,1.106393774E0,3.653588678E0
2.243999997E-2,-1.575519978E0,3.070688689E0,1.340345403E0,3.702420563E0
3.251799999E-2,-1.975734408E0,2.652829117E0,8.030193217E-1,3.403802110E0
4.259500001E-2,-7.546741042E-1,2.804736271E0,9.174256508E-1,3.045939654E0
5.267299997E-2,4.607582545E-1,2.769340151E0,8.873382179E-1,2.944301641E0
6.275099999E-2,1.484576479E0,2.318751959E0,5.822142792E-1,2.814169759E0
7.282800000E-2,2.064212721E0,1.621756251E0,2.621543589E-1,2.638141847E0
8.290599997E-2,2.225761934E0,1.217112556E0,1.796571627E-1,2.543158638E0
9.298399999E-2,2.294100975E0,1.128970458E0,7.235213086E-1,2.657246067E0
1.030620000E-1,2.072566053E0,1.406567606E0,1.127268333E0,2.746761069E0
1.131390000E-1,1.517553314E0,1.973330618E0,8.166972747E-1,2.619922942E0
1.232170000E-1,1.740622252E0,1.543447416E0,4.758999118E-1,2.374547636E0
1.332949999E-1,2.657004029E0,5.124108034E-1,5.962382412E-1,2.770872657E0
1.433720000E-1,2.374252999E0,-6.497595602E-1,2.775265427E-1,2.477152755E0
1.534500000E-1,1.392685731E0,-1.777834809E0,-1.940015522E-1,2.266695118E0
1.635280000E-1,2.267636476E0,-1.412985510E0,-1.839993051E-1,2.678163360E0
1.736060000E-1,2.677451742E0,-1.411572238E0,-7.764006034E-1,3.124753096E0
1.836830000E-1,3.208274550E0,-2.182805949E0,-1.563665333E-1,3.883570251E0
1.937610000E-1,3.483689809E0,-2.824545468E0,-3.051694009E-1,4.495250844E0
2.038390000E-1,3.487371216E0,-2.985308231E0,-8.554526201E-1,4.669649068E0
2.139160000E-1,3.684606864E0,-2.287834221E0,-1.113014283E0,4.477646029E0
2.239940000E-1,3.517114248E0,-1.466381698E0,-1.937403570E0,4.274798301E0
2.340720000E-1,3.531970854E0,-1.001265514E0,-2.042862782E0,4.201266367E0
2.441490000E-1,3.846899842E0,-1.281344220E0,-1.423631243E0,4.297348871E0
2.542270000E-1,3.397977814E0,-2.167773342E0,-7.159167123E-1,4.093657439E0
2.643050000E-1,1.867631231E0,-3.272726946E0,1.761019094E-1,3.772240709E0
2.743820000E-1,4.658000162E-1,-3.954911072E0,1.224251422E0,4.166183239E0
2.844600000E-1,-4.542614132E-1,-3.562965190E0,1.870068204E0,4.049472739E0
2.945380000E-1,-1.960406955E0,-3.841274529E0,2.404188404E0,4.937479855E0
3.046160000E-1,-2.468544760E0,-3.197332948E0,2.590541359E0,4.798703548E0
3.146930000E-1,-3.157532997E0,-2.399075160E0,2.156282686E0,4.513882063E0
3.247710000E-1,-3.953294024E0,-1.928167893E0,1.277166677E0,4.580122246E0
3.348490000E-1,-5.109040929E0,-2.020782527E0,4.359406248E-1,5.511434066E0
3.449260000E-1,-6.400301442E0,-1.882966577E0,-3.898581335E-1,6.682919351E0
3.550040000E-1,-7.064131742E0,-1.332189268E0,-1.215901305E0,7.290754522E0
3.650820000E-1,-6.884682448E0,-1.770308858E-1,-2.241073891E0,7.242417036E0
3.751590000E-1,-5.356695070E0,1.526386410E-1,-3.187165225E0,6.235022277E0
3.852370000E-1,-2.692169183E0,-1.828003335E-1,-2.837245620E0,3.915501703E0
3.953150000E-1,-5.443651061E-1,-5.157191581E-1,-1.742954268E0,1.897416454E0
4.053930000E-1,7.407689868E-1,-1.210901644E0,-1.115407695E0,1.805313216E0
4.154699999E-1,1.326128191E0,-1.617651506E0,-7.570295088E-1,2.224523781E0
4.255480000E-1,1.527297845E0,-1.521340848E0,-5.720445094E-1,2.230325448E0
4.356260000E-1,1.318195566E0,-1.230472859E0,-3.880234234E-1,1.844523023E0
4.457030000E-1,9.669517136E-1,-1.236114253E0,-2.561057067E-1,1.590145967E0
4.557803750E-1,3.297062181E-1,-8.857689714E-1,-2.769333427E-1,9.848781332E-1
4.658583750E-1,1.509546429E-2,-5.583038449E-2,-2.778596878E-1,2.838149238E-1
4.759353750E-1,-4.015644054E-1,3.392870271E-1,5.790557595E-1,7.820966891E-1
4.860133750E-1,-1.936716815E0,8.675993335E-1,-9.278455353E-1,2.316138589E0
4.960913750E-1,-1.640808673E0,1.970509921E0,-1.005587483E0,2.754336333E0
5.061693750E-1,-1.373864421E0,2.982414443E0,-8.584461021E-1,3.393998979E0
5.162463750E-1,-1.099748121E0,3.683024899E0,-7.878797109E-1,3.923630051E0
5.263243750E-1,8.561712429E-2,4.837621365E0,-7.995995776E-1,4.904005531E0
5.364023750E-1,6.683366029E-1,4.561916376E0,-1.127223602E0,4.746407893E0
5.464793750E-1,-3.695447601E-1,3.810272006E0,-8.680400674E-1,3.925331789E0
5.565573749E-1,2.120454749E-1,4.227193100E0,3.325263302E-1,4.245550442E0
5.666353750E-1,4.632257795E-1,4.012684486E0,6.471766989E-1,4.090849861E0
5.767123750E-1,4.341092768E-1,3.990220653E0,7.723575461E-1,4.087401118E0
5.867903750E-1,-1.157655144E-1,3.299663900E0,7.969287157E-1,3.396509809E0
5.968683750E-1,-9.583381802E-2,2.576031786E0,1.217849890E0,2.851014247E0
6.069453750E-1,5.784878486E-1,2.583789872E0,1.408406994E0,2.999037938E0
6.170233750E-1,5.984119436E-1,2.740543199E0,1.244336754E0,3.068720879E0
6.271013750E-1,1.736245319E0,2.780444598E0,1.136365432E0,3.469401442E0
6.371793750E-1,1.888472900E0,2.591625726E0,1.029433013E0,3.367875610E0
6.472563750E-1,9.190250105E-1,2.075004927E0,7.535681033E-1,2.391258519E0
6.573343750E-1,7.682165480E-1,1.798011212E0,1.087020779E-1,1.958268910E0
6.674123750E-1,1.205827868E0,1.773756377E0,-7.037882714E-1,2.257332599E0
6.774893750E-1,5.400081995E-1,9.461367953E-1,-1.227729492E0,1.641372412E0
6.875673750E-1,-9.240354896E-2,-1.715678322E-1,-1.314323101E0,1.328690766E0
6.976453750E-1,6.535403699E-1,-5.501727068E-1,-1.340477550E0,1.589554996E0
7.077233750E-1,1.358766033E0,-9.064856565E-1,-1.817669989E0,2.443744170E0
7.178003750E-1,1.726787447E0,-1.855627921E0,-2.535515260E0,3.585245807E0
7.278783750E-1,2.043871427E0,-2.630679279E0,-2.623004808E0,4.240051663E0
7.379563750E-1,2.817989862E0,-2.256758609E0,-3.571493354E0,5.078345307E0
7.480333750E-1,4.643664836E0,-1.351629506E0,-4.428697507E0,6.557734902E0
7.581113750E-1,4.619957885E0,-1.052711656E0,-4.877929730E0,6.800471391E0
7.681893750E-1,3.003416473E0,-3.612013389E0,-3.753680899E0,6.013091678E0
7.782663750E-1,3.307834506E0,-3.892186235E0,-1.529135771E0,5.331898256E0
7.883443750E-1,3.625203830E0,-3.588558453E0,-4.520263150E-2,5.101166323E0
7.984223750E-1,3.526683801E-1,-6.427914333E0,7.170779693E-1,6.477395964E0
8.084993750E-1,-2.634661818E0,-8.230440180E0,1.910436212E0,8.850500267E0
8.185773750E-1,-4.620702528E0,-7.564615395E0,2.678470327E0,9.260048662E0
8.286553750E-1,-5.204952807E0,-6.552364132E0,3.253310097E0,8.978253507E0
8.387333750E-1,-2.150127030E0,-3.611048598E0,4.072610845E0,5.852254037E0
8.488103750E-1,2.944245574E-1,-2.415803459E0,5.343283896E0,5.871411668E0
8.588883750E-1,-1.872922230E0,-3.288360647E0,5.727888014E0,6.865118683E0
8.689663750E-1,-3.724583400E0,-3.057383350E0,4.723782215E0,6.747905813E0
8.790433750E-1,-4.293157879E0,-2.478155243E0,4.445570233E0,6.658494776E0
8.891213750E-1,-5.337134964E0,-2.109413452E0,4.408115601E0,7.236443732E0
8.991993750E-1,-5.242383758E0,-6.546092409E-1,4.047639141E0,6.655410081E0
9.092763750E-1,-4.217387320E0,3.055345595E-1,2.931224702E0,5.145073899E0
9.193543750E-1,-3.193048401E0,3.479806674E-1,1.385997101E0,3.498233354E0
9.294323749E-1,-2.326954140E0,-5.549007654E-4,3.836767495E-1,2.358373110E0
9.395103750E-1,-1.394086139E0,-3.945104706E-1,-3.638020635E-1,1.493809431E0
9.495873750E-1,-4.113761795E-1,-2.993294942E-1,-9.658793342E-1,1.091673667E0
9.596653750E-1,6.735860869E-2,-1.114391595E-1,-1.844457254E0,1.849047979E0
9.697433750E-1,7.640409051E-1,6.528691095E-1,-2.405859100E0,2.607327096E0
9.798203750E-1,1.104154290E0,1.246817581E0,-2.709064128E0,3.180053337E0
9.898983750E-1,1.662903693E0,2.013372935E0,-2.316882019E0,3.490968570E0
9.999763750E-1,1.109896840E0,2.001949815E0,-1.292657998E0,2.628809380E0
1.010053375E0,1.310936978E0,2.767849111E0,-3.332397636E-1,3.080680639E0
1.020131375E0,1.528780845E0,3.564812325E0,3.949782479E-1,3.898854396E0
1.030209375E0,1.345403537E0,3.657234001E0,7.495686809E-1,3.968289861E0
1.040286375E0,9.783075911E-1,3.964558393E0,6.482410383E-1,4.134613094E0
1.050364375E0,6.337740035E-1,4.470636077E0,7.038175075E-1,4.569859462E0
1.060442375E0,-2.008909024E0,3.452626476E0,6.517892019E-1,4.047366331E0
1.070520375E0,-2.644437777E0,3.553412009E0,5.786218230E-1,4.467056221E0
1.080597375E0,-2.190875691E0,3.980841719E0,1.340305789E0,4.737452553E0
1.090675375E0,-2.440999696E0,4.233716254E0,1.783371538E0,5.202234797E0
1.100753375E0,-1.256049604E0,4.089684130E0,1.203188728E0,4.444191715E0
1.110830375E0,4.297001839E-2,3.809133554E0,6.441737151E-1,3.863457600E0
1.120908375E0,1.314480245E0,3.665960970E0,4.450419621E-1,3.919845723E0
1.130986375E0,2.142479018E0,3.190936679E0,3.817575471E-1,3.862386834E0
1.141063375E0,2.197075932E0,2.250704402E0,3.105761019E-1,3.160580718E0
1.151141375E0,1.821304619E0,1.333012556E0,3.253859297E-1,2.280339666E0
1.161219375E0,1.251367153E0,6.915338230E-1,3.392213921E-1,1.469425035E0
1.171297375E0,1.060180305E0,8.056176782E-2,2.515238285E-1,1.092582589E0
1.181374375E0,8.359587340E-1,-8.660954297E-1,1.110525124E-1,1.208834546E0
1.191452375E0,6.208097032E-1,-7.660536629E-1,-8.513779879E-2,9.896925516E-1
1.201530375E0,1.807981007E-1,-7.485453451E-1,-1.470760386E-1,7.839894438E-1
1.211607375E0,-1.690815961E-1,-1.182259642E0,-2.701600742E-1,1.224464338E0
1.221685375E0,-1.098851158E-1,-1.741182123E0,-4.832608254E-1,1.810340009E0
1.231763375E0,6.564641239E-1,-1.989086525E0,-6.805727787E-1,2.202405425E0
1.241840375E0,1.584206310E0,-2.455489681E0,-9.433734012E-1,3.070682755E0
1.251918375E0,2.346031851E0,-2.750743082E0,-1.126010013E0,3.786601576E0
1.261996375E0,3.057209103E0,-3.264400511E0,-7.647083648E-1,4.537357940E0
1.272073375E0,2.923179810E0,-3.890975277E0,-1.160445289E0,5.003129228E0
1.282151375E0,2.800081010E0,-4.361335829E0,-1.469754811E0,5.387196217E0
1.292229375E0,2.874015251E0,-4.303346068E0,-1.688737861E0,5.443398443E0
1.302307375E0,2.541927901E0,-4.441037471E0,-1.474817476E0,5.325344859E0
1.312384375E0,2.510714879E0,-5.276892856E0,-1.244126108E0,5.974708126E0
1.322462375E0,2.681310027E0,-5.448961794E0,-1.822925028E-1,6.075675983E0
1.332540375E0,1.941179264E0,-4.826112875E0,1.071686017E0,5.311125430E0
1.342617375E0,1.283903254E0,-3.444981242E0,1.617978512E0,4.016734717E0
1.352695375E0,1.378427003E-1,-2.200507225E0,2.264762424E0,3.160756475E0
1.362773375E0,-9.666133060E-1,-1.449788470E0,2.505653529E0,3.051971084E0
1.372850375E0,-2.147414068E0,-8.436491382E-1,2.571829977E0,3.455060127E0
1.382928375E0,-3.764319616E0,-7.634528214E-1,2.474974358E0,4.569295400E0
1.393006375E0,-5.197213433E0,-3.159133673E-2,2.005712059E0,5.570898163E0
1.403084375E0,-6.391447588E0,6.929599589E-1,1.140770724E0,6.529330258E0
1.413161375E0,-6.894135057E0,9.859446394E-1,-5.162141249E-2,6.964470531E0
1.423239375E0,-6.768618141E0,1.070021753E0,-1.107336345E0,6.941565520E0
1.433317375E0,-6.158526092E0,6.164345241E-1,-1.990151303E0,6.501395031E0
1.443394375E0,-4.592583852E0,-3.444015867E-1,-2.257507052E0,5.129013257E0
1.453472500E0,-1.921737418E0,-6.101119298E-1,-1.615412607E0,2.583576816E0
1.463550500E0,-1.263850813E-1,-1.266588771E0,-6.714628167E-1,1.439125644E0
1.473627500E0,1.730310979E0,-1.757585317E0,-4.067475235E-1,2.499705139E0
1.483705500E0,2.891318332E0,-2.057912346E0,6.759733589E-1,3.612708804E0
1.493783500E0,3.234287935E0,-1.624067656E0,7.715881987E-1,3.700481394E0
1.503860500E0,3.034901975E0,-1.036057032E0,3.945353213E-1,3.231052814E0
1.513938500E0,2.813405353E0,-7.848717570E-2,4.500531721E-1,2.850255738E0
1.524016500E0,2.963851873E0,1.113964748E0,9.377811241E-1,3.302236942E0
1.534094500E0,2.484986253E0,2.151029840E0,1.450392487E0,3.592453816E0
1.544171500E0,2.087776415E0,3.103820767E0,1.620366368E0,4.076530495E0
1.554249500E0,1.525566192E0,3.870432839E0,1.441037088E0,4.402748057E0
1.564327500E0,1.095173844E0,4.073086224E0,1.398528854E0,4.443570646E0
1.574404500E0,6.203315471E-1,4.288801703E0,1.409950512E0,4.557037604E0
1.584482500E0,1.729875362E-1,4.203661566E0,1.378485768E0,4.427292430E0
1.594560500E0,-1.060082656E-1,4.027762701E0,1.257768831E0,4.220911342E0
1.604637500E0,-2.678508626E-1,3.775859388E0,9.707860252E-1,3.907848988E0
1.614715500E0,-3.683560212E-1,3.560583034E0,6.449644049E-1,3.637226524E0
1.624793500E0,-4.326748087E-1,2.922973988E0,4.931655702E-1,2.995696364E0
1.634871500E0,-9.352688679E-1,2.001047004E0,9.470852137E-2,2.210856547E0
1.644948500E0,-1.139747607E0,1.496405981E0,-4.759730020E-1,1.940310740E0
1.655026500E0,-8.765903047E-1,1.831592356E0,-7.108740735E-1,2.151390961E0
1.665104500E0,-7.989104833E-1,2.365103422E0,-9.397199146E-1,2.667404295E0
1.675181500E0,2.188441788E-1,2.833799272E0,-7.308035772E-1,2.934686517E0
1.685259500E0,-7.263903911E-1,2.380660524E0,-1.149085318E0,2.741456656E0
1.695337500E0,5.833213033E-1,2.404774441E0,-1.017789599E0,2.675649365E0
1.705414500E0,4.371650317E-1,1.803656698E0,-1.322893657E0,2.279109120E0
1.715492500E0,7.983459346E-1,1.126445630E0,-1.162293009E0,1.804760657E0
1.725570500E0,1.409557579E0,8.809508657E-1,-7.553453645E-1,1.825780276E0
1.735647500E0,-1.845711628E-1,-7.393090832E-1,-4.011774659E-1,8.611549186E-1
1.745725500E0,2.678172411E-1,-1.232181416E0,-1.108946376E-1,1.265817813E0
1.755803500E0,1.604464281E-1,-1.191022865E0,1.185791945E-1,1.207617301E0
1.765881500E0,-7.860508481E-1,-2.345223473E0,-1.168881798E-1,2.476209184E0
1.775958500E0,5.387022239E-1,-2.354363256E0,-3.691499269E-1,2.443255635E0
1.786036500E0,1.702387601E-1,-2.669356856E0,-1.162466233E0,2.916466184E0
1.796114500E0,4.025091693E-1,-3.176106386E0,-2.153374866E0,3.858327192E0
1.806191500E0,6.647655621E-1,-3.805624639E0,-2.303991247E0,4.498118253E0
1.816269500E0,2.228651628E-1,-5.693438559E0,-2.644195118E0,6.281455192E0
1.826347500E0,-6.118994236E-1,-7.647226027E0,-2.080531715E0,7.948779720E0
1.836424500E0,-1.176818370E0,-8.956279618E0,-1.105846620E0,9.100700128E0
1.846502500E0,-1.351324428E0,-9.433631101E0,5.810246632E-2,9.530102274E0
1.856580500E0,-2.339498318E0,-8.326399421E0,3.700220391E-2,8.648904489E0
1.866658500E0,-1.922679258E0,-5.628984700E0,1.192273584E-1,5.949485646E0
1.876735500E0,3.106508732E-2,-3.109756275E0,1.115693185E0,3.303985535E0
1.886813500E0,7.544862624E-1,-1.134437020E0,1.909855876E0,2.346006466E0
1.896891500E0,1.841867668E0,8.346262997E-1,5.660892956E0,6.011221725E0
1.906968500E0,3.143748479E0,1.033610557E0,3.936573619E0,5.142773292E0
1.917046500E0,1.806142057E0,2.107580935E0,-3.072108100E0,4.140277129E0
1.927124500E0,5.699770801E-1,3.957915371E0,-2.872920653E0,4.923783203E0
1.937201500E0,-1.622976565E-1,4.539877051E0,4.865093923E-1,4.568754267E0
1.947279500E0,-1.090007098E0,4.073231235E0,1.347862876E0,4.426744006E0
1.957357500E0,-1.525951523E0,3.079657148E0,2.324845781E0,4.149424551E0
1.967434500E0,-2.277777741E0,9.928765136E-1,1.546622308E0,2.926792745E0
1.977512500E0,-7.411221586E-1,-5.132943177E-1,1.863934329E0,2.070503391E0
1.987590500E0,-1.210977365E-1,-1.479129798E0,2.018232117E0,2.505144806E0
1.997668500E0,-9.620701656E-2,-1.852613681E0,1.439937812E0,2.348372658E0
2.007745500E0,9.047250599E-3,-1.718579711E0,1.617503718E0,2.360067023E0
2.017823500E0,-2.456868455E-2,-1.178529119E0,1.573278594E0,1.965894209E0
2.027901500E0,3.634214097E-1,-3.590167022E-1,1.099092940E0,1.212012130E0
2.037978500E0,1.038253684E0,1.949718976E-1,5.665859874E-1,1.198751198E0
2.048056500E0,1.459578024E0,6.510512102E-1,6.008857544E-1,1.707424779E0
2.058134500E0,1.483144788E0,7.840215719E-1,4.674430838E-1,1.741525574E0
2.068211500E0,1.064911872E0,1.156036634E0,1.648283315E-1,1.580388045E0
2.078289500E0,-1.724890611E-1,2.052535831E0,-3.626647800E-2,2.060090064E0
2.088367500E0,-1.104937963E0,3.232916179E0,9.719490364E-2,3.417906050E0
2.098444500E0,-1.952835250E0,3.652988922E0,2.331650332E-1,4.148766022E0
2.108522500E0,-1.651517556E0,3.645909113E0,5.450308116E-1,4.039458143E0
2.118600500E0,-1.408111563E0,3.555010638E0,4.608345607E-1,3.851395500E0
2.128678500E0,-2.613557754E-1,3.195271804E0,1.391368500E0,3.494849789E0
2.138755500E0,-1.065605351E-1,2.330038254E0,4.292417622E-1,2.371641184E0
2.148833500E0,3.883407810E-1,2.987489827E0,8.838183403E-2,3.013920267E0
2.158911500E0,4.021728082E-1,3.228165901E0,-7.859110996E-2,3.254070468E0
2.168988500E0,4.580153257E-1,3.488160006E0,-3.640499854E-1,3.536887142E0
2.179066500E0,7.686223447E-2,3.551556103E0,-7.040550506E-1,3.621484788E0
2.189144500E0,5.345331591E-1,3.520625501E0,3.284126678E-1,3.576085080E0
2.199221500E0,1.686836931E-1,2.486170607E0,-9.388499951E-1,2.662881482E0
2.209299500E0,7.186979404E-1,2.248526314E0,1.150732040E-2,2.360620624E0
2.219377500E0,5.625556478E-1,1.733643308E0,-3.427216816E-1,1.854574379E0
2.229455500E0,8.752106541E-1,1.694276344E0,8.277107978E-1,2.078862954E0
2.239532500E0,6.476659647E-1,1.536452976E0,1.345353105E0,2.142459784E0
2.249610500E0,5.692317063E-1,1.746631143E0,1.399790683E0,2.309579841E0
2.259688500E0,-1.107114735E-1,1.025929070E0,1.312503448E0,1.669566646E0
2.269765500E0,-1.528729682E-1,3.619403100E-1,1.941892478E-1,4.382697758E-1
2.279843500E0,1.552924729E-1,5.171850550E-1,1.263836341E0,1.374364737E0
2.289921500E0,-2.867929177E-1,1.505394906E-1,9.786487761E-1,1.030856800E0
2.299998500E0,-3.530502764E-1,-7.805477411E-1,5.723267837E-1,1.030270460E0
2.310076500E0,1.913022581E-1,-1.047596512E0,5.809113733E-1,1.213059368E0
2.320154500E0,-2.620526905E-1,-3.362157186E0,-1.185778789E-1,3.374438216E0
2.330232500E0,6.746898220E-1,-4.001604597E0,-5.149971731E-1,4.090631711E0
2.340309500E0,1.842381346E0,-4.417046345E0,-2.479162426E-1,4.792299021E0
2.350387500E0,2.730937685E0,-4.331432583E0,-4.754429519E-1,5.142506671E0
2.360465500E0,2.746031980E0,-6.361816238E0,-1.519821156E0,7.093888484E0
2.370542500E0,4.031037726E0,-6.147668397E0,-1.787709002E0,7.565645732E0
2.380620500E0,3.439641564E0,-6.002611840E0,-1.510548642E0,7.081259789E0
2.390698500E0,2.776822833E0,-6.727224532E0,-7.202435057E-1,7.313347090E0
2.400775500E0,3.703000742E0,-5.192260841E0,7.152607278E-1,6.417428227E0
2.410853500E0,3.570344376E0,-5.496431245E0,1.078600934E0,6.642401326E0
2.420931500E0,2.061470084E0,-4.467601957E0,1.361621228E0,5.105207001E0
2.431008500E0,8.407600290E-1,-3.083425679E0,1.870713737E0,3.703236588E0
2.441086500E0,-1.140616175E-1,-1.911724938E0,2.327290063E0,3.013964387E0
2.451164500E0,-1.275383276E0,-9.558864427E-1,2.283575109E0,2.784786647E0
2.461242875E0,-1.612529930E0,1.748931438E-1,2.058812817E0,2.620982755E0
2.471319875E0,-1.990058332E0,3.435239196E-1,1.601255329E0,2.577277532E0
2.481397875E0,-3.413194316E0,3.510609806E-1,1.139877342E0,3.615585652E0
2.491475875E0,-4.747803747E0,1.283505936E0,9.179977278E-1,5.003173766E0
2.501552875E0,-5.971947287E0,1.162093180E0,5.305763483E-2,6.084195105E0
2.511630875E0,-7.408332185E0,9.316099727E-1,-8.202123284E-1,7.511593117E0
2.521708875E0,-8.056935750E0,2.288746387E0,-9.607350270E-1,8.430633754E0
2.531785875E0,-7.288721541E0,3.211387900E0,-9.059711015E-1,8.016187223E0
2.541863875E0,-4.810575653E0,2.577233974E0,-9.836128429E-1,5.545382520E0
2.551941875E0,-2.123296204E0,1.147778027E0,-8.962237930E-1,2.574684108E0
2.562019875E0,-1.257268017E0,3.968838555E-1,-6.219613123E-1,1.457763882E0
2.572096875E0,-1.368347865E-1,4.563237262E-1,-9.221753441E-2,4.852413580E-1
2.582174875E0,1.180420986E0,7.039457077E-1,2.291629064E-1,1.393358855E0
2.592252875E0,1.886220261E0,8.278797823E-1,8.878660753E-2,2.061818340E0
2.602329875E0,2.162799116E0,1.156383374E0,-2.975110102E-1,2.470513170E0
2.612407875E0,1.912463441E0,1.358021683E0,-9.802279629E-2,2.347625987E0
2.622485875E0,1.303381791E0,1.638253586E0,2.885999266E-1,2.113283895E0
2.632562875E0,7.219568861E-1,2.045999229E0,5.654188100E-1,2.242104596E0
2.642640875E0,3.440061321E-2,2.527797520E0,3.665327497E-1,2.554464711E0
2.652718875E0,-5.226986505E-1,2.958465418E0,6.520778351E-3,3.004292600E0
2.662795875E0,-4.294645411E-1,3.377746448E0,-4.007681608E-1,3.428443667E0
2.672873875E0,-6.007169526E-1,3.403905137E0,-8.653621888E-1,3.563184356E0
2.682951875E0,-8.544053838E-1,3.185766571E0,-1.190914106E0,3.506763980E0
2.693029875E0,-6.576992020E-1,2.592356628E0,-1.066560202E0,2.879310992E0
2.703106875E0,-6.364296627E-1,2.068813310E0,-8.464581406E-1,2.324117599E0
2.713184875E0,-7.421063912E-1,1.527090415E0,-6.671602893E-1,1.824234054E0
2.723262875E0,-5.805899227E-1,8.094394183E-1,-3.908770108E-1,1.070075543E0
2.733339875E0,-3.123138579E-1,6.597980601E-1,-2.211878890E-1,7.627565195E-1
2.743417875E0,2.955282193E-1,1.124417816E0,-6.013826215E-1,1.308935984E0
2.753495875E0,6.303693160E-1,1.416977404E0,-1.286662263E0,2.015115435E0
2.763572875E0,-5.718854651E-2,1.079118851E0,-1.851503295E0,2.143789280E0
2.773650875E0,-2.705518377E-1,1.047685974E0,-1.918818780E0,2.202886676E0
2.783728875E0,-1.680495626E-1,1.059213760E0,-1.983388413E0,2.254773612E0
2.793806875E0,-2.196214199E-3,9.006922352E-1,-2.221166022E0,2.396837463E0
2.803883875E0,6.916963025E-1,1.373087034E0,-2.313459059E0,2.777751716E0
2.813961875E0,6.961293691E-1,1.601931267E0,-2.282287552E0,2.873954828E0
2.824039875E0,8.326651436E-1,8.268436557E-1,-1.842375791E0,2.184342058E0
2.834116875E0,8.219316291E-1,-2.995587051E-2,-1.165753537E0,1.426692072E0
2.844194875E0,1.078871514E0,-6.074730814E-1,-5.723757541E-1,1.364038596E0
2.854272875E0,1.970721444E-1,-1.018120698E0,-4.746407139E-1,1.140478405E0
2.864349875E0,-4.695432575E-1,-1.445211854E0,-6.112486285E-1,1.637905083E0
2.874427875E0,-2.478579167E-1,-2.185971631E0,-8.146995735E-1,2.345983997E0
2.884505875E0,5.103136995E-1,-3.108656999E0,-1.019766104E0,3.311206927E0
2.894583875E0,1.582040939E0,-3.574174887E0,-2.165917436E0,4.468643865E0
2.904660875E0,-1.108118264E0,-3.770398673E0,-3.273685890E0,5.114767986E0
2.914738875E0,-7.041096490E-1,-3.345294401E0,-4.854081861E0,5.937076363E0
2.924816875E0,6.456163694E-1,-3.159268159E0,-4.470105734E0,5.511772952E0
2.934893875E0,8.696499521E-1,-2.934402956E0,-2.852806231E0,4.183959266E0
2.944971875E0,2.569933140E-1,-2.609975458E0,-1.631806446E0,3.088820119E0
2.955049875E0,-5.540362546E-1,-2.507932774E0,-6.686630237E-1,2.654014546E0
2.965126875E0,-1.361097610E0,-2.608065172E0,3.200742459E-1,2.959229321E0
2.975204875E0,-1.787522915E0,-2.579348327E0,1.115684999E0,3.330619909E0
2.985282875E0,-1.831817766E0,-2.496589760E0,1.522486317E0,3.450576958E0
2.995360875E0,-1.632636750E0,-2.449847703E0,2.028325435E0,3.575102879E0
3.005437875E0,-1.558744755E0,-2.562518286E0,2.351018064E0,3.810967215E0
3.015515875E0,-1.128986392E0,-2.388829669E0,2.534005508E0,3.660915374E0
3.025593875E0,-5.075716478E-1,-2.151785300E0,2.451500126E0,3.301160678E0
3.035670875E0,-2.663846733E-1,-1.936758623E0,2.387703495E0,3.085955725E0
3.045748875E0,-1.731487732E-1,-1.239305078E0,2.455712460E0,2.756153345E0
3.055826875E0,-4.048476170E-1,-4.020685816E-1,2.630238984E0,2.691415584E0
3.065903875E0,-6.583199570E-1,5.339841056E-1,2.892907605E0,3.014537876E0
3.075981875E0,-7.634167148E-1,6.786149848E-1,2.904871008E0,3.079220511E0
3.086059875E0,-2.489210135E-1,1.558631465E0,2.647336242E0,3.082155560E0
3.096137875E0,-6.373428516E-1,1.289079502E0,2.268593373E0,2.685972406E0
3.106214875E0,-1.263675981E0,5.539581943E-1,1.681406622E0,2.175057446E0
3.116292875E0,-8.435029578E-1,3.592336339E-1,9.342564225E-1,1.308961843E0
3.126370875E0,1.930635126E-1,6.963525134E-1,1.811021559E-1,7.449686797E-1
3.136447875E0,4.705175498E-1,5.747514778E-1,-3.168945301E-1,8.075569139E-1
3.146525875E0,5.234664995E-1,2.788174617E-1,-2.902029408E-1,6.602833482E-1
3.156603875E0,4.970329186E-1,8.664988875E-2,3.858226776E-2,5.060024870E-1
3.166680875E0,4.727972330E-1,2.121054089E-1,3.061861586E-1,6.018935884E-1
3.176758875E0,7.290049736E-1,8.148270428E-1,4.779024370E-1,1.193223408E0
3.186836875E0,6.942248578E-1,1.879637173E0,5.448741062E-1,2.076504719E0
3.196914875E0,4.238892210E-1,2.773728486E0,7.564940500E-1,2.906120272E0
3.206991875E0,1.314482584E-1,3.030147604E0,1.001912289E0,3.194198081E0
3.217069875E0,6.206782870E-2,2.970734046E0,8.773619179E-1,3.098205468E0
3.227147875E0,-1.688331626E-1,3.023847814E0,8.037899847E-1,3.133406864E0
3.237224875E0,2.450980309E-1,3.677084713E0,7.710887003E-1,3.765050174E0
3.247302875E0,-4.773689517E-1,3.126984512E0,7.211065547E-1,3.244365564E0
3.257380875E0,-6.595776931E-1,2.679664328E0,6.000671442E-1,2.824132472E0
3.267457875E0,-5.491877434E-1,3.212866076E0,4.772544193E-1,3.294220300E0
3.277535875E0,-9.531657332E-1,2.857978678E0,1.554447198E-1,3.016741636E0
3.287613875E0,-9.260656428E-1,2.579464102E0,-2.170673561E-1,2.749245508E0
3.297691875E0,-4.069249865E-1,2.840520646E0,-3.491863632E-1,2.890687911E0
3.307768875E0,2.824936793E-1,3.249759083E0,-4.385038248E-1,3.291355706E0
3.317846875E0,1.508265889E0,3.851122994E0,-2.941955658E-1,4.146391845E0
3.327924875E0,1.790988267E-1,3.502856398E0,-4.320882598E-1,3.533946745E0
3.338001875E0,-2.678353675E-3,3.165581397E0,-9.233162089E-1,3.297487768E0
3.348079875E0,6.160594252E-1,2.322535107E0,-1.030328515E0,2.614435960E0
3.358157875E0,7.463713503E-1,1.487615862E0,-6.718404007E-1,1.794837226E0
3.368234875E0,9.090560925E-1,9.583720940E-1,-2.559490013E-1,1.345499885E0
3.378312875E0,1.438484632E0,3.539500898E-1,1.840593852E-2,1.481505141E0
3.388390875E0,1.642155725E0,-2.925595880E-2,-5.592277050E-2,1.643368094E0
3.398468875E0,1.992280566E0,-5.934900498E-1,-2.922320708E-1,2.099240786E0
3.408545875E0,1.931919028E0,-1.022221935E0,-4.896386759E-1,2.239864918E0
3.418623875E0,1.980618002E0,-1.723389630E0,-5.155970243E-1,2.675585876E0
3.428701875E0,1.748353879E0,-2.149054066E0,-9.464734487E-1,2.927624746E0
3.438778875E0,1.384274511E0,-2.645857481E0,-1.689113252E0,3.430726062E0
3.448856875E0,8.998377378E-1,-2.884717995E0,-2.561543555E0,3.961415309E0
3.458938250E0,3.060816396E-1,-3.247381606E0,-3.133251557E0,4.522879457E0
3.469015250E0,7.851787359E-2,-3.916282611E0,-2.990989970E0,4.928433376E0
3.479093250E0,-2.859306727E-1,-4.262281657E0,-2.771678452E0,5.092249279E0
3.489171250E0,2.976790445E-1,-3.516029590E0,-2.663838254E0,4.421211501E0
3.499249250E0,1.820498141E0,-2.944572433E0,-2.535715234E0,4.291220345E0
3.509326250E0,2.110093483E0,-3.116396374E0,-1.658150930E0,4.112649434E0
3.519404250E0,1.478034322E0,-3.756878157E0,-6.566094272E-1,4.090214527E0
3.529482250E0,8.423490098E-1,-4.025729624E0,6.495204091E-2,4.113425534E0
3.539559250E0,4.084019201E-1,-4.059544657E0,3.205176111E-1,4.092606320E0
3.549637250E0,-4.342120416E-2,-3.862839645E0,9.315083773E-1,3.973804648E0
3.559715250E0,-1.537582951E0,-2.862988572E0,1.211897424E0,3.468365647E0
3.569792250E0,-1.464266176E0,-2.297311973E0,1.512922611E0,3.116191997E0
3.579870250E0,-1.907644166E0,-2.503819842E0,9.360341223E-1,3.283957970E0
3.589948250E0,-2.598351778E0,-1.830456827E0,3.493758130E-1,3.197509596E0
3.600026250E0,-3.268146822E0,-1.367557322E0,-4.542269146E-1,3.571738900E0
3.610103250E0,-3.629357692E0,-6.893516421E-1,-8.152223146E-1,3.783124419E0
3.620181250E0,-3.477092396E0,-2.060459393E-1,-7.173598051E-2,3.483930612E0
3.630259250E0,-3.198433686E0,-3.209963518E-1,6.206084128E-1,3.273861864E0
3.640336250E0,-2.236485727E0,-8.825886708E-1,9.747251482E-1,2.594401720E0
3.650414250E0,-1.058471675E0,-9.153523743E-1,2.034968749E0,2.469682179E0
3.660492250E0,-1.869084995E0,-1.033928061E-1,2.871707940E0,3.427954971E0
3.670569250E0,-2.721956069E0,6.520417285E-1,2.453872926E0,3.722323951E0
3.680647250E0,-2.217060692E0,7.578318930E-1,2.471677990E0,3.405709820E0
3.690725250E0,-1.479849005E0,1.333849293E0,2.746666695E0,3.393123185E0
3.700802250E0,-1.214698314E0,1.617897674E0,2.840144085E0,3.487047935E0
3.710880250E0,-4.048530257E-1,2.211435671E0,2.819066627E0,3.605757943E0
3.720958250E0,3.772983143E-1,2.285264955E0,2.544446297E0,3.440784342E0
3.731036250E0,5.030017564E-1,1.842659966E0,2.557969737E0,3.192431000E0
3.741113250E0,5.015653878E-2,1.552802961E0,2.344263361E0,2.812344825E0
3.751191250E0,-1.889361823E-1,1.607223582E0,1.942293158E0,2.528115352E0
3.761269250E0,-3.801888853E-2,2.171093976E0,1.222225946E0,2.491772612E0
3.771346250E0,-4.072221713E-1,2.781442133E0,1.831343557E-1,2.817053146E0
3.781424250E0,-8.901672471E-1,3.292675892E0,-9.767750359E-1,3.547985587E0
3.791502250E0,-9.337336814E-1,3.730396117E0,-1.830091960E0,4.258749859E0
3.801579250E0,-9.324269018E-1,4.233878222E0,-2.264020558E0,4.890903170E0
3.811657250E0,-1.269110968E0,4.665346019E0,-2.354848867E0,5.377862895E0
3.821735250E0,-1.882606974E0,4.512527869E0,-1.927239648E0,5.255603623E0
3.831813250E0,-2.100536209E0,3.843972434E0,-1.019531923E0,4.497535078E0
3.841890250E0,-1.829072937E0,3.353767017E0,-2.318171038E-1,3.827139948E0
3.851968250E0,-1.562534774E0,2.806642463E0,2.282811463E-1,3.220383381E0
3.862046250E0,-1.386121354E0,2.525676734E0,4.901601014E-1,2.922436022E0
3.872123250E0,-1.349015216E0,2.325232428E0,3.901072249E-1,2.716382069E0
3.882201250E0,-1.288197742E0,2.310349510E0,-4.490661621E-3,2.645219924E0
3.892279250E0,-1.152092030E0,2.323442595E0,-3.988096359E-1,2.623880840E0
3.902356250E0,-3.980609000E-1,1.948542516E0,-6.538122654E-1,2.093499677E0
3.912434250E0,9.782304078E-2,1.090340828E0,-8.730009913E-1,1.400193986E0
3.922512250E0,5.872271702E-1,1.423107040E-1,-1.221262617E0,1.362560262E0
3.932590250E0,1.012428726E0,-5.264306724E-1,-1.954651687E0,2.263361305E0
3.942667250E0,1.199828333E0,-9.139695078E-1,-2.701157231E0,3.093732160E0
3.952745250E0,1.500430327E0,-1.107579004E0,-2.847597531E0,3.403943906E0
3.962823250E0,1.684691295E0,-1.102416497E0,-2.268259936E0,3.032904554E0
3.972900250E0,1.624538941E0,-1.315582591E0,-1.691603874E0,2.689127738E0
3.982978250E0,1.409509632E0,-1.438776408E0,-1.263329533E0,2.377561033E0
3.993056250E0,6.620068458E-1,-2.033948117E0,-1.551405476E0,2.642358220E0
4.003133250E0,1.295044246E-1,-2.799267955E0,-2.757452177E0,3.931439302E0
4.013211250E0,5.953327999E-2,-2.965073356E0,-4.214309345E0,5.153213316E0
4.023289250E0,-2.272279166E-1,-2.744386573E0,-5.512903436E0,6.162417909E0
4.033367250E0,6.826573111E-1,-2.319851235E0,-5.654961541E0,6.150310625E0
4.043444250E0,1.720014617E0,-2.018162389E0,-4.546238236E0,5.263051569E0
4.053522250E0,2.003384721E0,-2.205633479E0,-2.413131866E0,3.834263265E0
4.063600250E0,1.276919924E0,-2.203118591E0,-7.376660156E-1,2.651114326E0
4.073677250E0,7.513654572E-1,-2.899543610E0,2.783064151E-1,3.008215029E0
4.083755250E0,-5.371625058E-1,-3.873276340E0,1.781723793E0,4.297133095E0
4.093833250E0,-3.669069350E0,-4.743881142E0,2.551186967E0,6.517287252E0
4.103910250E0,-3.299344057E0,-4.486186747E0,2.581603013E0,6.138095540E0
4.113988250E0,-1.428397893E0,-3.024128480E0,3.120864816E0,4.574436665E0
4.124066250E0,-1.135318634E0,-1.504628336E0,3.545012484E0,4.014968037E0
4.134143250E0,-1.437731657E0,-9.977261943E-1,3.408051982E0,3.831102738E0
4.144221250E0,-1.709739598E0,-1.091124355E0,3.154798547E0,3.750535391E0
4.154299250E0,-1.714379948E0,-1.757658992E0,2.839849970E0,3.754092646E0
4.164377250E0,-1.177678788E0,-2.148380467E0,2.586193078E0,3.562423415E0
4.174454250E0,-9.524202132E-1,-1.795603913E0,2.212578217E0,3.004463353E0
4.184532250E0,-1.384100410E0,-8.922190350E-1,1.665540787E0,2.342181647E0
4.194610250E0,-1.736844366E0,1.920851272E-1,1.175812137E0,2.106195439E0
4.204687250E0,-2.647790278E0,1.294824976E0,6.693766033E-1,3.022487405E0
4.214765250E0,-2.224945955E0,1.269256856E0,4.155887329E-1,2.595016660E0
4.224843250E0,-1.239802092E0,6.195008039E-1,5.613031742E-1,1.495309910E0
4.234920250E0,-5.339627632E-1,6.945474780E-1,9.131374490E-1,1.265437645E0
4.244998250E0,-3.798585176E-2,6.733899128E-1,1.179528408E0,1.358743598E0
4.255076250E0,2.215863036E-1,9.919631785E-1,1.025613393E0,1.443943998E0
4.265154250E0,3.167180903E-1,1.761814023E0,5.081325419E-1,1.860778784E0
4.275231250E0,8.113677569E-1,2.086227488E0,5.053404965E-2,2.239021317E0
4.285309250E0,1.485312351E0,2.154375032E0,-2.054477692E-2,2.616850521E0
4.295387250E0,2.373830099E0,2.292796168E0,3.541130809E-1,3.319243842E0
4.305464250E0,2.681511171E0,2.691962192E0,7.337600756E-1,3.869827703E0
4.315542250E0,1.663731658E0,3.009516873E0,9.459848408E-1,3.566522418E0
4.325620250E0,1.048147539E0,3.105055699E0,7.943489973E-1,3.372087556E0
4.335697250E0,8.038421711E-1,3.116792815E0,4.302299416E-1,3.247407811E0
4.345775250E0,5.998241924E-1,3.135327904E0,1.452344580E-1,3.195491069E0
4.355853250E0,2.095009860E-1,3.287241490E0,-9.633865200E-2,3.295319167E0
4.365931250E0,-7.160600422E-1,3.404079968E0,-9.205457982E-1,3.598320022E0
4.376008250E0,-1.051861471E0,3.606894736E0,-1.553930304E0,4.065808847E0
4.386086250E0,-8.571184187E-1,3.452469771E0,-1.781155589E0,3.978280374E0
4.396164250E0,-4.685050113E-1,3.271584401E0,-1.781873481E0,3.754708316E0
4.406241250E0,9.079117924E-2,2.743297822E0,-1.609910377E0,3.182096385E0
4.416319250E0,5.908610686E-1,2.013050169E0,-1.293663719E0,2.464762382E0
4.426397250E0,1.114003121E0,1.398637027E0,-7.480905048E-1,1.938253825E0
4.436474250E0,1.708014231E0,7.554889137E-1,-1.450833075E-1,1.873265939E0
4.446552250E0,2.168185863E0,1.693844819E-1,3.211969113E-1,2.198383155E0
4.456626375E0,2.310564395E0,-5.018899083E-2,5.051573324E-1,2.365673411E0
4.466703375E0,2.289453900E0,-3.041534472E-1,4.993498778E-1,2.362934358E0
4.476781375E0,2.361137840E0,-5.435396254E-1,6.313496748E-1,2.503799041E0
4.486859375E0,1.748716260E0,-9.379085934E-1,3.939316694E-1,2.023082610E0
4.496937375E0,1.112992941E0,-9.339623076E-1,2.093778290E-2,1.453092313E0
4.507014375E0,1.110627450E0,-7.502422071E-1,-2.285431015E-1,1.359628130E0
4.517092375E0,1.476436278E0,-9.516173905E-1,-7.526348877E-1,1.910994248E0
4.527170375E0,1.641530658E0,-1.735245445E0,-1.495005719E0,2.817932177E0
4.537247375E0,1.587531621E0,-2.609976043E0,-2.319003389E0,3.835362865E0
4.547325375E0,1.429314736E0,-3.436364785E0,-3.026136414E0,4.796774452E0
4.557403375E0,1.324932874E0,-3.991699414E0,-3.537043898E0,5.495433638E0
4.567480375E0,1.210057306E0,-4.042409391E0,-3.237672304E0,5.318630869E0
4.577558375E0,1.305940533E0,-4.058484557E0,-2.014764572E0,4.715512046E0
4.587636375E0,1.362726645E0,-3.982316387E0,-9.526096630E-1,4.315475974E0
4.597714375E0,1.283329350E0,-4.315472023E0,1.177255742E-1,4.503786442E0
4.607791375E0,5.829910452E-1,-5.283643466E0,5.932924870E-1,5.348715997E0
4.617869375E0,-3.021095529E-1,-5.269761007E0,8.982469296E-1,5.354297227E0
4.627947375E0,-4.038495704E-1,-4.895062072E0,1.645449754E0,5.179983790E0
4.638024375E0,-1.348713208E0,-4.710138030E0,2.430022134E0,5.468951924E0
4.648102375E0,-2.943908482E0,-3.465392702E0,3.155571549E0,5.534724522E0
4.658180375E0,-3.478264763E0,-1.760973778E0,3.532225792E0,5.260795896E0
4.668257375E0,-2.777316045E0,2.714458770E-1,2.919859761E0,4.038904345E0
4.678335375E0,-2.698178367E0,1.687875981E0,1.773578621E0,3.643442459E0
4.688413375E0,-3.151738991E0,2.294108284E0,7.785906049E-1,3.975247768E0
4.698490375E0,-3.510031516E0,2.329952300E0,-8.408149928E-3,4.212964474E0
4.708568375E0,-3.740921982E0,2.079889106E0,-6.609389980E-1,4.330967136E0
4.718646375E0,-3.641955811E0,1.878360726E0,-1.043876513E0,4.228682929E0
4.728724375E0,-3.196148302E0,1.767439629E0,-1.106052223E0,3.816092024E0
4.738801375E0,-2.820783077E0,1.655328040E0,-7.262276924E-1,3.350273832E0
4.748879375E0,-2.250686860E0,1.657167574E0,-2.213557041E-1,2.803710766E0
4.758957375E0,-1.218203793E0,1.447349596E0,3.982561239E-1,1.933248374E0
4.769034375E0,-2.767247432E-1,8.196077263E-1,1.016199303E0,1.334539033E0
4.779112375E0,2.919883150E-1,1.625549340E-1,1.291676835E0,1.334207753E0
4.789190375E0,7.959256259E-1,-1.810917771E-1,1.325357966E0,1.556555676E0
4.799267375E0,1.009802010E0,5.942583740E-2,1.560170453E0,1.859398658E0
4.809345375E0,1.572692996E0,3.258343381E-1,1.475724964E0,2.181122519E0
4.819423375E0,1.653358552E0,4.257310939E-1,7.187724924E-1,1.852424185E0
4.829500375E0,1.173996504E0,1.009677318E0,-1.804064651E-1,1.558929944E0
4.839578375E0,6.710438637E-1,2.066677322E0,-9.249698746E-1,2.361572419E0
4.849656375E0,3.163725199E-1,2.728710188E0,-1.567244414E0,3.162626427E0
4.859734375E0,4.190013872E-1,2.811749421E0,-2.492820060E0,3.780958718E0
4.869811375E0,8.292370673E-1,2.438404702E0,-3.369013631E0,4.240719804E0
4.879889375E0,7.141355042E-1,2.067370802E0,-3.613049515E0,4.223522032E0
4.889967375E0,6.296900158E-1,1.951201830E0,-2.964922498E0,3.604783421E0
4.900044375E0,4.157550131E-1,1.744631980E0,-2.023690347E0,2.704055398E0
4.910122375E0,-7.418537915E-2,1.455988272E0,-1.264379693E0,1.929782715E0
4.920200375E0,-6.611187999E-1,1.575857947E0,-8.091605061E-1,1.890805929E0
4.930277375E0,-8.527829276E-1,2.221676484E0,-5.383829659E-1,2.439865025E0
4.940355375E0,-8.121949187E-1,2.503431002E0,-2.846740329E-1,2.647237555E0
4.950433375E0,-8.932795738E-1,2.324555905E0,-1.114760152E-1,2.492776655E0
4.960511375E0,-6.261961582E-1,2.202385935E0,-1.022309643E-1,2.291959120E0
4.970588375E0,-4.125529316E-1,2.083887432E0,-2.040841985E-1,2.134112722E0
4.980666375E0,-1.005615842E-1,1.874289894E0,-4.004272681E-1,1.919223081E0
4.990744375E0,3.196175784E-1,1.402753467E0,-5.905278504E-1,1.555183535E0
5.000821375E0,6.866778566E-1,7.236812299E-1,-6.334382272E-1,1.181729660E0
5.010899375E0,1.192000227E0,2.567816448E-1,-4.958228374E-1,1.316298461E0
5.020977375E0,1.588403149E0,-3.440308732E-1,-2.517623949E-1,1.644617313E0
5.031054375E0,1.431990568E0,-1.114292777E0,1.508815984E-2,1.814517301E0
5.041132375E0,1.178677492E0,-1.948058367E0,1.668678403E-1,2.282992971E0
5.051210375E0,8.408815049E-1,-2.482137782E0,-1.479322080E-1,2.624875923E0
5.061287375E0,6.840420780E-1,-2.392646146E0,-1.106508379E0,2.723422468E0
5.071365375E0,1.126532315E0,-1.935093920E0,-2.434462509E0,3.307608085E0
5.081443375E0,1.702213062E0,-1.881987169E0,-3.942634842E0,4.688685798E0
5.091521375E0,2.517475137E0,-1.702087639E0,-4.528077954E0,5.453280972E0
5.101598375E0,2.640127210E0,-1.648450545E0,-2.879552565E0,4.240222147E0
5.111676375E0,1.880867281E0,-2.254230857E0,-8.758657616E-2,2.937156771E0
5.121754375E0,9.125844486E-1,-3.213835545E0,1.544797099E0,3.680753640E0
5.131831375E0,8.780383676E-2,-4.269174355E0,1.969585476E0,4.702427685E0
5.141909375E0,-6.368994865E-1,-5.327216917E0,1.910318098E0,5.695102833E0
5.151987375E0,-1.504235403E0,-5.827215836E0,2.206341577E0,6.409922909E0
5.162064375E0,-1.863700879E0,-4.910363066E0,2.798859819E0,5.951358055E0
5.172142375E0,-2.061783203E0,-3.378457469E0,2.970825262E0,4.948810724E0
5.182220375E0,-2.239836182E0,-2.252850330E0,2.752682018E0,4.203505564E0
5.192297375E0,-2.125845882E0,-1.566397737E0,2.536345564E0,3.661402929E0
5.202375375E0,-2.180917444E0,-9.200430107E-1,2.284220642E0,3.289459527E0
5.212453375E0,-2.324037695E0,-3.945426303E-1,2.003373173E0,3.093593245E0
5.222531375E0,-2.042720695E0,-2.792466474E-1,1.723982538E0,2.687527176E0
5.232608375E0,-1.757692321E0,2.909106731E-2,1.193780265E0,2.124956448E0
5.242686375E0,-1.563798650E0,1.091125524E-1,4.334248602E-1,1.626415960E0
5.252764375E0,-1.455269650E0,1.039459527E-1,-2.358205462E-1,1.477912665E0
5.262841375E0,-1.273535117E0,8.973546445E-2,-4.679876058E-1,1.359763416E0
5.272919375E0,-8.699771038E-1,1.240252912E-1,-2.514909379E-1,9.140514897E-1
5.282997375E0,-4.029428865E-1,5.416679317E-1,4.054624517E-1,7.875067731E-1
5.293074375E0,-3.025787920E-2,1.106468618E0,7.064980173E-1,1.313136623E0
5.303152375E0,-7.998406291E-3,1.716867061E0,8.591863596E-1,1.919869183E0
5.313230375E0,-6.785883799E-2,2.083186936E0,1.186248101E0,2.398219587E0
5.323307375E0,-1.076080638E-1,2.010324197E0,1.503964823E0,2.512945097E0
5.333385375E0,-3.962628812E-2,1.927246957E0,9.163569260E-1,2.134376043E0
5.343463375E0,1.952259591E-1,1.848352815E0,-2.514770508E-1,1.875569783E0
5.353541375E0,4.034058398E-1,1.741577979E0,-1.014294280E0,2.055388775E0
5.363618375E0,8.576152128E-1,2.311724775E0,-3.940404276E-1,2.496966789E0
5.373696375E0,6.616419795E-1,2.720592499E0,2.309790516E-1,2.809402957E0
5.383774375E0,1.373411554E-1,2.884000542E0,3.370114370E-1,2.906870899E0
5.393851375E0,-4.854639101E-1,3.187720710E0,-6.195709705E-3,3.224480876E0
5.403929375E0,-8.341933134E-1,3.310269579E0,-2.642029309E-1,3.423969387E0
5.414007375E0,-5.651652601E-1,2.136074417E0,3.178768623E-1,2.232324211E0
5.424084375E0,-7.528382246E-1,1.019362646E-1,6.953591446E-1,1.029893555E0
5.434162375E0,-1.405132260E0,6.104803044E-1,1.944089569E-2,1.532142559E0
5.444240375E0,6.553149998E-1,4.943178810E0,-3.116928470E-1,4.996159217E0
5.454317250E0,3.234475046E-2,4.626346260E0,-2.310234904E-1,4.632223846E0
5.464395250E0,4.664416020E-1,2.847654249E0,2.703636304E-1,2.898240670E0
5.474473250E0,5.505581845E-1,2.420152618E0,5.181195132E-1,2.535488284E0
5.484550250E0,4.762899211E-1,2.237039459E0,6.505378246E-2,2.288106122E0
5.494628250E0,4.841724063E-1,1.952926759E0,-1.680467851E-1,2.019055612E0
5.504706250E0,1.048048355E0,1.444019022E0,3.885675068E-1,1.826083514E0
5.514784250E0,1.193988426E0,1.044620279E0,1.055986170E0,1.905766691E0
5.524861250E0,1.175595278E0,6.264028573E-1,1.201723269E0,1.794029993E0
5.534939250E0,1.132035276E0,1.270354378E-1,8.401139116E-1,1.415426880E0
5.545017250E0,1.010825419E0,-3.595008516E-1,2.521985972E-1,1.102094834E0
5.555094250E0,1.042559866E0,-4.964397186E-1,-3.708291741E-1,1.212805733E0
5.565172250E0,1.238302573E0,-6.659200948E-1,-7.963800276E-1,1.615878703E0
5.575250250E0,1.478494936E0,-1.044721436E0,-1.156860946E0,2.148422073E0
5.585327250E0,1.841633926E0,-1.525321632E0,-1.362858645E0,2.752381748E0
5.595405250E0,2.272361904E0,-1.990188725E0,-1.437713385E0,3.345369869E0
5.605483250E0,2.627708893E0,-2.450771563E0,-1.577666491E0,3.924304631E0
5.615560250E0,2.880343108E0,-2.823950222E0,-1.745187904E0,4.395082718E0
5.625638250E0,3.193142248E0,-2.679437456E0,-1.621190826E0,4.472561033E0
5.635716250E0,3.023682045E0,-2.923535321E0,-1.338049933E0,4.413625438E0
5.645794250E0,2.801845992E0,-3.428223706E0,-1.023947887E0,4.544395232E0
5.655871250E0,2.189492971E0,-3.888718836E0,-4.021246418E-1,4.480816654E0
5.665949250E0,1.823806350E0,-3.985906577E0,3.376578467E-1,4.396331842E0
5.676027250E0,1.222670627E0,-4.233109313E0,5.452130985E-1,4.439751710E0
5.686104250E0,1.387035567E-1,-4.400202856E0,7.267574501E-1,4.461972685E0
5.696182250E0,-7.869038107E-1,-4.142013786E0,1.147034334E0,4.369345898E0
5.706260250E0,-1.636720592E0,-4.094791673E0,1.720167814E0,4.733407911E0
5.716337250E0,-2.447878945E0,-3.708899413E0,2.328019795E0,5.016744199E0
5.726415250E0,-3.245960147E0,-2.842840821E0,2.767540963E0,5.126137356E0
5.736493250E0,-3.778026951E0,-1.337377503E0,2.498716393E0,4.722885753E0
5.746570250E0,-4.342525336E0,-1.235189223E-1,1.974534413E0,4.771956556E0
5.756648250E0,-4.914359053E0,5.707285935E-1,1.648001625E0,5.214649115E0
5.766726250E0,-5.592624375E0,8.685337186E-1,1.885684802E0,5.965534795E0
5.776804250E0,-5.201187201E0,9.021411753E-1,2.007209970E0,5.647574600E0
5.786881250E0,-4.086966052E0,-2.522570693E-1,2.158738225E0,4.628938956E0
5.796959250E0,-2.938536353E0,-7.752367151E-1,1.600578367E0,3.434798243E0
5.807037250E0,-1.647744494E0,-9.571324843E-1,-2.385278070E-1,1.920432249E0
5.817114250E0,-7.068333551E-2,-9.264065355E-1,-1.821653259E0,2.044907284E0
5.827192250E0,1.820622541E0,-2.066704220E-1,-1.935594296E0,2.665315062E0
5.837270250E0,3.169990198E0,8.119817877E-1,-1.416921709E0,3.565924762E0
5.847347250E0,2.828760141E0,1.231393796E0,-1.301650869E0,3.348508564E0
5.857425250E0,1.587705137E0,1.354082413E0,-1.318990349E0,2.468619518E0
5.867503250E0,1.358328223E0,1.910269566E0,-8.147649892E-1,2.481537299E0
5.877580250E0,6.799943429E-1,2.139779212E0,-6.033928943E-1,2.324893625E0
5.887658250E0,-2.713777569E-1,2.186183885E0,-3.489267468E-1,2.230425014E0
5.897736250E0,-7.835434158E-1,2.373638602E0,-2.821727403E-1,2.515496364E0
5.907814250E0,-1.321673197E0,2.702542144E0,-5.238217910E-1,3.053677021E0
5.917891250E0,-1.556828476E0,2.768223333E0,-5.068787527E-1,3.216162526E0
5.927969250E0,-1.642092867E0,3.103327847E0,-4.300393224E-1,3.537237132E0
5.938047250E0,-1.669991688E0,3.309348643E0,-2.886148370E-1,3.718058526E0
5.948124250E0,-1.304275538E0,3.290504236E0,1.590561064E-1,3.543141495E0
5.958202250E0,-1.216407236E0,3.014574130E0,4.891010244E-1,3.287327723E0
5.968280250E0,-1.131599951E0,2.862276381E0,5.979994226E-1,3.135402341E0
5.978357250E0,-1.005994157E0,2.829568226E0,6.863148907E-1,3.080504621E0
5.988435250E0,-6.663209215E-1,2.555518584E0,5.125565453E-1,2.690236610E0
5.998513250E0,-3.436620601E-1,2.145238758E0,-3.102542858E-1,2.194632238E0
6.008590250E0,-3.479268730E-2,1.758823757E0,-9.075181286E-1,1.979459697E0
6.018668250E0,4.553311613E-1,1.354629128E0,-1.176749519E0,1.851239037E0
6.028746250E0,9.899309787E-1,8.596933132E-1,-1.637495348E0,2.097719464E0
6.038824250E0,1.132272088E0,4.594414616E-1,-1.882403491E0,2.244230255E0
6.048901250E0,9.578543231E-1,3.968329847E-1,-1.794460344E0,2.072450059E0
6.058979250E0,9.130938873E-1,3.502564037E-1,-1.756208882E0,2.010146670E0
6.069057250E0,2.814022234E-1,1.555704349E-1,-1.434902043E0,1.470487418E0
6.079134250E0,-1.606026949E-1,7.024260163E-2,-9.793254451E-1,9.948897307E-1
6.089212250E0,-4.937596473E-1,-1.375838149E-1,-9.219563659E-1,1.054860861E0
6.099290250E0,-6.085055535E-1,-1.458535320E-1,-8.933747372E-1,1.090720259E0
6.109367250E0,-4.448117280E-1,-8.948707473E-1,-1.124375131E0,1.504284070E0
6.119445250E0,9.525070444E-2,-1.567330953E0,-1.376131386E0,2.087902442E0
6.129523250E0,6.481065524E-1,-1.824876829E0,-1.684212116E0,2.566473845E0
6.139600250E0,1.134831999E0,-1.314578624E0,-2.502701855E0,3.046223432E0
6.149678250E0,1.632344974E0,-9.652174294E-1,-3.077590742E0,3.614935626E0
6.159756250E0,1.946159191E0,-1.604723897E0,-2.946353495E0,3.878617447E0
6.169833250E0,2.190281468E0,-2.690312693E0,-2.222463373E0,4.120007128E0
6.179911250E0,2.386785336E0,-3.519753681E0,-1.612059668E0,4.547982695E0
6.189989250E0,2.037950537E0,-3.822889713E0,-1.143858054E0,4.480640512E0
6.200067250E0,9.226420981E-1,-4.215195199E0,2.528219104E-2,4.315064101E0
6.210144250E0,-3.572327167E-1,-3.200266496E0,2.446263067E-1,3.229421448E0
6.220222250E0,-6.097143191E-1,-4.028356778E0,2.114789528E0,4.590397002E0
6.230300250E0,-1.562108220E0,-3.931476016E0,2.400084389E0,4.863855552E0
6.240377250E0,-1.842010340E0,-3.588140377E0,2.589252341E0,4.792909465E0
6.250455250E0,-1.580888307E0,-2.223245292E0,2.310950896E0,3.575265237E0
6.260533250E0,-1.662312247E0,-9.692408985E-1,1.992738257E0,2.770147232E0
6.270610250E0,-1.903378915E0,7.496685952E-1,1.533061738E0,2.556390539E0
6.280688250E0,-1.886995894E0,1.436277893E0,1.186853069E0,2.651842359E0
6.290766250E0,-1.563547220E0,1.481813085E0,8.788987854E-1,2.326566784E0
6.300843250E0,-1.186284573E0,1.066509331E0,1.145361958E0,1.963814466E0
6.310921250E0,-9.212218094E-1,1.133210859E0,1.166193248E0,1.868909619E0
6.320999250E0,-4.975422111E-1,9.239185452E-1,1.059700248E0,1.491354534E0
6.331077250E0,-4.995010284E-1,2.546392250E-1,9.082703729E-1,1.067378791E0
6.341154250E0,-4.989686394E-1,-3.088358974E-1,7.305687384E-1,9.370592276E-1
6.351232250E0,-1.919006476E-1,-6.260005689E-1,6.318830140E-1,9.099333570E-1
6.361310250E0,-1.673707008E-1,-6.598454225E-1,2.725797252E-1,7.332861922E-1
6.371387250E0,-1.290158898E-1,-3.851905936E-1,-7.058166705E-2,4.123089436E-1
6.381465250E0,1.606367549E-1,8.997344613E-2,-3.093340071E-1,3.599818273E-1
6.391543250E0,3.477795231E-1,7.137076342E-1,-6.925815710E-1,1.053564624E0
6.401620250E0,4.641911548E-1,1.592530698E0,-1.047093578E0,1.961640236E0
6.411698250E0,4.590190002E-1,2.595960267E0,-1.210582970E0,2.900899736E0
6.421776250E0,3.784180561E-1,3.601698316E0,-1.183120937E0,3.809882693E0
6.431853250E0,1.009013075E-1,4.327281060E0,-9.645508468E-1,4.434625213E0
6.441931250E0,4.970396429E-2,4.677150963E0,-6.416944957E-1,4.721226900E0
6.452009250E0,4.976272881E-2,4.891580640E0,-1.087184135E-1,4.893041711E0
6.462087542E0,5.145666718E-2,5.206366664E0,2.498340015E-1,5.212611501E0
6.472164542E0,5.194137213E-1,5.172477956E0,1.245527192E-1,5.199983866E0
6.482242542E0,1.243754956E0,4.908416528E0,7.852576733E-2,5.064152989E0
6.492320542E0,4.456465642E-1,4.365496708E0,7.505952875E-2,4.388826301E0
6.502397542E0,-4.823390119E-1,4.434734758E0,-5.503225783E-2,4.461227616E0
6.512475542E0,-1.208120854E0,4.568619624E0,-2.878198532E-1,4.734414592E0
6.522553542E0,-2.018950009E0,3.669351770E0,-2.440774359E-1,4.195220536E0
6.532630542E0,-2.649047722E0,3.057483337E0,-2.529575658E-1,4.053349938E0
6.542708542E0,-3.155797251E0,2.676809133E0,-3.229652190E-1,4.150743302E0
6.552786542E0,-3.769117841E0,1.915830853E0,-6.370349226E-1,4.275800586E0
6.562863542E0,-4.079721936E0,1.099468331E0,-1.030057204E0,4.349020526E0
6.572941542E0,-3.383280253E0,6.096137470E-1,-1.232945208E0,3.652173062E0
6.583019542E0,-2.161915601E0,1.160543668E-1,-1.104565934E0,2.430517144E0
6.593097542E0,-1.237243935E0,-5.637101805E-1,-8.305706710E-1,1.593232363E0
6.603174542E0,-4.703301466E-1,-1.167122371E0,-5.773236680E-1,1.384444904E0
6.613252542E0,1.915110768E-1,-1.713008484E0,-5.039915438E-1,1.795851340E0
6.623330542E0,7.039876615E-1,-1.972266424E0,-6.530370708E-1,2.193602264E0
6.633407542E0,1.104198583E0,-2.070693190E0,-8.138518734E-1,2.483823599E0
6.643485542E0,1.661346872E0,-2.680620933E0,-7.539259529E-1,3.242561696E0
6.653563542E0,2.156834663E0,-3.334767659E0,-6.824525124E-1,4.029683925E0
6.663640542E0,2.384605348E0,-3.480698959E0,-5.190590876E-1,4.251003439E0
6.673718542E0,2.820994162E0,-3.801495920E0,-4.365232998E-1,4.753938565E0
6.683796542E0,3.337093681E0,-4.180510685E0,1.064661026E-1,5.350158769E0
6.693874542E0,3.869099966E0,-4.195919852E0,7.910592806E-1,5.762070178E0
6.703951542E0,4.475200998E0,-3.678409692E0,1.920605397E0,6.103019493E0
6.714029542E0,4.875523016E0,-3.029885648E0,2.295467469E0,6.182240907E0
6.724107542E0,4.983730420E0,-2.541576483E0,2.218847601E0,6.018344008E0
6.734184542E0,5.340377830E0,-2.541894572E0,2.222895044E0,6.318395822E0
6.744262542E0,5.457557201E0,-3.083924446E0,2.619889412E0,6.794066612E0
6.754340542E0,5.121110752E0,-3.760712176E0,3.448127629E0,7.228991323E0
6.764417542E0,4.670168218E0,-4.112816885E0,4.039795394E0,7.419277642E0
6.774495542E0,4.304535391E0,-3.737812141E0,4.703243870E0,7.390586407E0
6.784573542E0,4.054288010E0,-2.462692866E0,4.556149267E0,6.577279344E0
6.794651542E0,3.439217934E0,-7.832503241E-1,3.418483415E0,4.911998567E0
6.804728542E0,2.565128776E0,5.238608211E-1,2.370548934E0,3.531829277E0
6.814806542E0,1.485955545E0,1.437992882E0,1.521819735E0,2.567454520E0
6.824884542E0,7.305394292E-1,1.829565711E0,8.220805138E-1,2.134669745E0
6.834961542E0,1.443987447E-1,1.642833125E0,5.750362372E-1,1.746544688E0
6.845039542E0,-4.537910047E-1,8.998876584E-1,6.514651930E-1,1.200054570E0
6.855117542E0,-8.737827641E-1,2.714452922E-2,9.366505650E-1,1.281228873E0
6.865194542E0,-1.443489264E0,-7.677604651E-1,1.104796899E0,1.973244429E0
6.875272542E0,-1.972325335E0,-1.322910907E0,9.558605687E-1,2.560044906E0
6.885350542E0,-2.076852355E0,-1.554797446E0,4.339554951E-1,2.630404565E0
6.895427542E0,-2.502741031E0,-1.900669608E0,7.352055073E-1,3.227504417E0
6.905505542E0,-2.886305806E0,-2.011762612E0,7.935820618E-1,3.606622035E0
6.915583542E0,-3.027352342E0,-1.703711411E0,6.436462963E-1,3.532955608E0
6.925661542E0,-3.017836584E0,-1.079256261E0,4.601074594E-1,3.237874395E0
6.935738542E0,-3.144821443E0,-4.885196650E-1,4.449237022E-1,3.213488832E0
6.945816542E0,-3.369301022E0,3.425532818E-2,3.627606744E-1,3.388946460E0
6.955894542E0,-3.459656584E0,4.347235268E-1,2.614088389E-1,3.496647366E0
6.965971542E0,-3.310223679E0,8.654557443E-1,-6.610160351E-2,3.422128558E0
6.976049542E0,-3.224061155E0,1.406314421E0,-5.016396475E-1,3.553017439E0
6.986127542E0,-3.094270802E0,1.979471948E0,-1.021222938E0,3.812573577E0
6.996204542E0,-2.897325761E0,2.563746201E0,-1.510289025E0,4.153102947E0
7.006282542E0,-2.589269005E0,3.005503344E0,-2.010964175E0,4.447621976E0
7.016360542E0,-2.273765528E0,3.295463260E0,-2.411899566E0,4.674114599E0
7.026438542E0,-2.140882290E0,3.439952052E0,-2.620702760E0,4.825425375E0
7.036515542E0,-2.116016713E0,3.508149882E0,-2.624588527E0,4.865501748E0
7.046593542E0,-2.076562625E0,3.658406952E0,-2.526089548E0,4.906850534E0
7.056671542E0,-1.954825934E0,4.024974164E0,-2.494539434E0,5.122937482E0
7.066748542E0,-1.863745610E0,4.276044833E0,-2.434171903E0,5.261492180E0
7.076826542E0,-1.826712855E0,4.385484830E0,-2.367492302E0,5.307954111E0
7.086904542E0,-1.716249595E0,4.276061790E0,-2.363818789E0,5.178595984E0
7.096981542E0,-1.525920972E0,3.924371064E0,-2.484657055E0,4.889033007E0
7.107059542E0,-1.269180842E0,3.383107175E0,-2.516814987E0,4.403474974E0
7.117137542E0,-9.727185300E-1,2.748645685E0,-2.519725731E0,3.853602496E0
7.127215542E0,-6.786255097E-1,2.162968685E0,-2.462114577E0,3.346785667E0
7.137292542E0,-3.432429609E-1,1.647227308E0,-2.418338812E0,2.946105250E0
7.147370542E0,3.252806067E-3,1.103254988E0,-2.288427129E0,2.540488314E0
7.157448542E0,3.771538880E-1,4.024071354E-1,-2.047464249E0,2.120444861E0
7.167525542E0,8.020093614E-1,-5.571443421E-1,-1.738544444E0,1.994032501E0
7.177603542E0,1.276331110E0,-1.696124064E0,-1.451847274E0,2.571715079E0
7.187681542E0,1.780597911E0,-2.879416909E0,-1.201884360E0,3.592505626E0
7.197758542E0,2.263984598E0,-4.036737592E0,-9.248599470E-1,4.719771453E0
7.207836542E0,2.852584621E0,-4.938347840E0,-4.269110620E-2,5.703186911E0
7.217914542E0,3.748176915E0,-5.405508211E0,1.257912380E0,6.697065982E0
7.227992542E0,4.575872510E0,-5.669483101E0,1.558109601E0,7.450459945E0
7.238069542E0,4.847611333E0,-5.028387360E0,9.337757814E-1,7.046697970E0
7.248147542E0,4.712630698E0,-4.037934517E0,1.394142857E-1,6.207514769E0
7.258225542E0,4.735377536E0,-3.663382348E0,-4.337020183E-1,6.002688404E0
7.268302542E0,4.708025139E0,-3.425052177E0,-8.658396140E-1,5.886098993E0
7.278380542E0,4.714339839E0,-3.111994590E0,-1.058462685E0,5.747160490E0
7.288458542E0,4.657106708E0,-2.631946955E0,-7.134269679E-1,5.396736579E0
7.298536542E0,4.395869485E0,-2.182769111E0,3.824523425E-1,4.922846668E0
7.308613542E0,3.716371278E0,-1.781948326E0,2.067907284E0,4.611181611E0
7.318691542E0,3.001746800E0,-1.938960684E0,5.227658715E0,6.332335117E0
7.328769542E0,2.394778041E0,-1.263698493E0,6.385917292E0,6.936269560E0
7.338846542E0,8.952207032E-1,-3.068080831E-1,3.562652948E0,3.686196867E0
7.348924542E0,3.067364547E-1,2.324911416E-1,1.703978629E0,1.746906566E0
7.359002542E0,-2.849666861E-1,4.316274261E-1,1.160493382E0,1.270532620E0
7.369079542E0,-1.009925533E0,-2.030112344E-1,1.599526599E0,1.902537381E0
7.379157542E0,-1.414237399E0,-9.705167609E-1,2.452986488E0,2.993177729E0
7.389235542E0,-1.695358956E0,-1.862222995E0,3.092361686E0,3.988084411E0
7.399313542E0,-1.796266110E0,-2.328983417E0,3.042693974E0,4.231869837E0
7.409390542E0,-2.044344759E0,-2.444353659E0,2.976194175E0,4.360268578E0
7.419468542E0,-2.283448517E0,-2.170235605E0,2.636617126E0,4.108017719E0
7.429546542E0,-2.345526944E0,-1.603559132E0,2.451763836E0,3.752871492E0
7.439623542E0,-2.429623353E0,-8.760549921E-1,2.385848758E0,3.516079676E0
7.449701542E0,-2.291163041E0,2.651478410E-2,1.991334779E0,3.035711666E0
7.459779625E0,-2.141383981E0,6.564095986E-1,1.744898905E0,2.839202547E0
7.469856625E0,-2.048908803E0,1.191023449E0,1.431172982E0,2.768541176E0
7.479934625E0,-1.891328388E0,1.468971430E0,1.154341819E0,2.658477980E0
7.490012625E0,-1.734735275E0,1.858016508E0,9.965535352E-1,2.730320635E0
7.500090625E0,-1.614609200E0,2.379180593E0,5.630120230E-1,2.929922474E0
7.510167625E0,-1.567011987E0,2.921559547E0,2.048548615E-1,3.321596343E0
7.520245625E0,-1.638660844E0,3.372306198E0,-1.776322719E-1,3.753559868E0
7.530323625E0,-1.763023520E0,3.909698061E0,-5.820090419E-1,4.328131859E0
7.540400625E0,-1.852295008E0,4.287177932E0,-8.037290275E-1,4.738868194E0
7.550478625E0,-1.927010145E0,4.483467792E0,-9.613524199E-1,4.973836549E0
7.560556625E0,-2.001261890E0,4.496898261E0,-1.083220088E0,5.039891753E0
7.570634625E0,-2.088902881E0,4.397283341E0,-1.180404029E0,5.009288343E0
7.580711625E0,-2.154189675E0,4.309559319E0,-1.245652231E0,4.976392686E0
7.590789625E0,-2.178106834E0,4.110717149E0,-1.238695214E0,4.814198863E0
7.600867625E0,-2.070699330E0,3.846138827E0,-1.106772965E0,4.506165331E0
7.610944625E0,-1.764916848E0,3.596214797E0,-9.614053372E-1,4.119707826E0
7.621022625E0,-1.455996459E0,3.321019685E0,-8.613118225E-1,3.727057216E0
7.631100625E0,-1.186626928E0,3.101426917E0,-7.645901048E-1,3.407569576E0
7.641177625E0,-9.643131575E-1,2.873076189E0,-6.137740409E-1,3.092116625E0
7.651255625E0,-7.655557725E-1,2.458993333E0,-3.075989190E-1,2.593711809E0
7.661333625E0,-5.668559825E-1,2.103434089E0,-1.872067952E-1,2.186505673E0
7.671411625E0,-3.127906618E-1,1.741573886E0,-9.496813774E-2,1.771986610E0
7.681488625E0,-5.955359906E-2,1.378094004E0,-7.185058594E-3,1.379398906E0
7.691566625E0,1.947175437E-1,1.038492397E0,1.950865030E-2,1.056769591E0
7.701644625E0,3.126836577E-1,4.650033331E-1,2.137204099E-1,5.997295917E-1
7.711721625E0,5.172745174E-1,-1.372680652E-1,4.831834960E-1,7.210282511E-1
7.721799625E0,7.062790391E-1,-7.298857105E-1,6.919638857E-1,1.228974064E0
7.731877625E0,9.113306594E-1,-1.404022897E0,8.843782112E-1,1.893126696E0
7.741955625E0,1.126383065E0,-2.136091958E0,1.180532960E0,2.687989161E0
7.752032625E0,1.526653043E0,-2.835967419E0,1.159665416E0,3.423186322E0
7.762110625E0,2.189857983E0,-3.432140172E0,1.052628041E0,4.205126626E0
7.772188625E0,2.894638381E0,-3.709542022E0,1.028205098E0,4.816309697E0
7.782265625E0,3.421721603E0,-3.591687298E0,7.946667203E-1,5.023931883E0
7.792343625E0,3.734128102E0,-3.437231927E0,5.085393620E-1,5.100675278E0
7.802421625E0,4.145248174E0,-3.915136557E0,5.837222761E-1,5.731675878E0
7.812498625E0,4.824750766E0,-5.135206050E0,1.130013894E0,7.136209955E0
7.822576625E0,5.537547112E0,-6.353857593E0,1.815088882E0,8.621512743E0
7.832654625E0,5.977192824E0,-6.887313695E0,2.159082626E0,9.371422612E0
7.842732625E0,5.861540161E0,-6.093625506E0,1.869700999E0,8.659428774E0
7.852809625E0,5.336137429E0,-4.280462404E0,1.311188993E0,6.965338300E0
7.862887625E0,4.015523601E0,-2.368067375E0,5.532857645E-1,4.694496568E0
7.872965625E0,1.780480675E0,-1.266307520E0,3.410710126E-2,2.185133740E0
7.883042625E0,5.000626534E-1,-7.278766072E-1,2.112198481E-1,9.080092713E-1
7.893120625E0,-1.742218834E-1,-6.350315934E-1,4.669495788E-1,8.072547916E-1
7.903198625E0,-9.063768983E-1,-1.152315466E0,7.522711909E-1,1.647805195E0
7.913276625E0,-1.628460669E0,-1.997334023E0,1.182878863E0,2.835565156E0
7.923353625E0,-2.291407162E0,-2.545172521E0,1.267394518E0,3.651676164E0
7.933431625E0,-2.733815100E0,-2.916262554E0,3.823970863E-1,4.015539791E0
7.943509625E0,-3.161675165E0,-2.979829974E0,-5.295653647E-1,4.376758618E0
7.953586625E0,-3.737058142E0,-2.845988377E0,-1.012006557E0,4.805144189E0
7.963664625E0,-4.356561870E0,-2.425612164E0,-1.568738962E0,5.227252397E0
7.973742625E0,-5.082563567E0,-2.038520055E0,-1.752165240E0,5.749617332E0
7.983819625E0,-5.817854444E0,-1.532212576E0,-1.684819349E0,6.247697332E0
7.993897625E0,-6.098623706E0,-4.101962113E-1,-1.570225032E0,6.310869884E0
8.003975625E0,-5.612547008E0,1.043802254E0,-1.732703075E0,5.965942256E0
8.014052625E0,-4.399653218E0,2.360333263E0,-2.183225779E0,5.449274846E0
8.024130625E0,-3.399220640E0,3.142058049E0,-2.434485021E0,5.230100100E0
8.034208625E0,-2.732988011E0,3.433959825E0,-2.574051919E0,5.087931488E0
8.044286625E0,-2.362839965E0,3.526004940E0,-2.642475744E0,4.999840157E0
8.054363625E0,-2.191978184E0,3.519213399E0,-2.593603839E0,4.890440898E0
8.064441625E0,-2.135218092E0,3.521561641E0,-2.398801510E0,4.766004760E0
8.074519625E0,-2.068009903E0,3.475747536E0,-2.092619079E0,4.553739179E0
8.084596625E0,-1.946632231E0,3.405511951E0,-1.718772961E0,4.282647451E0
8.094674625E0,-1.789666358E0,3.389757214E0,-1.373718241E0,4.071911277E0
8.104752625E0,-1.623671507E0,3.558300866E0,-1.014765273E0,4.040737900E0
8.114830625E0,-1.445802715E0,3.648552639E0,-1.037251910E0,4.059331642E0
8.124907625E0,-1.337880656E0,3.840769914E0,-1.443768469E0,4.315774041E0
8.134985625E0,-1.237815793E0,3.948415985E0,-1.718476800E0,4.480551220E0
8.145063625E0,-1.138671866E0,3.949418782E0,-1.873039759E0,4.516941473E0
8.155140625E0,-9.782885876E-1,3.833024107E0,-1.874639265E0,4.377601483E0
8.165218625E0,-7.711954120E-1,3.659965235E0,-1.657468706E0,4.091123366E0
8.175296625E0,-4.799070087E-1,3.290763853E0,-1.378857651E0,3.600095261E0
8.185373625E0,-1.725697526E-1,2.707629222E0,-1.036808984E0,2.904480881E0
8.195451625E0,2.645987874E-1,2.010801330E0,-6.719997373E-1,2.136566908E0
8.205529625E0,8.431033006E-1,1.257711529E0,-2.482564044E-1,1.534370459E0
8.215607625E0,1.390230778E0,3.041902846E-1,7.042503476E-2,1.424862460E0
8.225684625E0,1.899625002E0,-8.139903063E-1,3.760435018E-1,2.100610407E0
8.235762625E0,2.413559883E0,-1.764800196E0,5.604179057E-1,3.042015659E0
8.245840625E0,2.918225757E0,-2.489391253E0,5.897396457E-1,3.880837954E0
8.255917625E0,3.436188491E0,-3.180816318E0,4.275159565E-1,4.701888311E0
8.265995625E0,3.937494555E0,-3.769609884E0,3.532984176E-1,5.462475796E0
8.276073625E0,4.156093882E0,-3.966743497E0,6.331423581E-1,5.780055326E0
8.286150625E0,4.037448906E0,-3.740170323E0,1.202679874E0,5.633498610E0
8.296228625E0,3.461707202E0,-3.411241053E0,1.188933070E0,5.003353288E0
8.306306625E0,3.612395504E0,-3.185817441E0,6.205568111E-1,4.856328326E0
8.316384625E0,3.784403340E0,-3.583080196E0,4.267882705E-1,5.228988483E0
8.326461625E0,4.244716913E0,-4.022093825E0,1.839089656E-1,5.850528431E0
8.336539625E0,4.481965350E0,-4.025797452E0,-4.152017203E-1,6.038828610E0
8.346617625E0,4.253774250E0,-3.567932400E0,-1.368757170E0,5.718236894E0
8.356694625E0,3.773662882E0,-2.875013956E0,-2.179674180E0,5.220844407E0
8.366772625E0,2.211803461E0,-2.163891960E0,-2.381353419E0,3.904529046E0
8.376850625E0,5.888751349E-1,-1.671939980E0,-1.963739430E0,2.645454549E0
8.386928625E0,-4.528016558E-1,-1.113920310E0,-1.280545490E0,1.756600281E0
8.397005625E0,-1.528756579E0,-1.261537946E0,-6.277629197E-2,1.983057117E0
8.407083625E0,-2.737149475E0,-1.633022667E0,1.548591211E0,3.543569530E0
8.417161625E0,-3.875244220E0,-1.713697286E0,2.327177796E0,4.834256163E0
8.427238625E0,-4.590382376E0,-1.543601198E0,1.454141722E0,5.056564363E0
8.437316625E0,-5.181186215E0,-1.762930841E0,7.147700733E-1,5.519376052E0
8.447394625E0,-5.398919569E0,-2.616162397E0,2.488867342E-1,6.004546844E0
8.457471125E0,-5.439810317E0,-3.355455108E0,5.731437859E-1,6.417095064E0
8.467549125E0,-4.736810397E0,-3.369932814E0,1.558363663E0,6.018497920E0
8.477627125E0,-2.855022910E0,-2.605851417E0,2.216320727E0,4.455748533E0
8.487705125E0,-1.975069872E0,-2.481865302E0,2.932965418E0,4.320051217E0
8.497782125E0,-1.700106895E0,-2.374810385E0,3.571470257E0,4.613619795E0
8.507860125E0,-9.374647897E-1,-1.797776154E0,3.493164930E0,4.038940524E0
8.517938125E0,-3.188545167E-2,-9.067014188E-1,3.403694637E0,3.522536206E0
8.528015125E0,9.434994087E-1,5.162272811E-1,3.086887815E0,3.268877196E0
8.538093125E0,1.189258760E0,1.983445716E0,2.792717319E0,3.625970674E0
8.548171125E0,9.552710232E-1,3.057603205E0,2.259131117E0,3.919841003E0
8.558248125E0,8.167700726E-1,4.024538546E0,1.903771263E0,4.526407945E0
8.568326125E0,7.065129277E-1,4.799424428E0,1.746429707E0,5.155933677E0
8.578404125E0,6.347822097E-1,5.376013101E0,1.485127579E0,5.613383048E0
8.588482125E0,5.520093173E-1,5.715828717E0,1.180929401E0,5.862593833E0
8.598559125E0,4.918847376E-1,5.789372656E0,9.663389254E-1,5.890042213E0
8.608637125E0,7.920433670E-2,5.503173085E0,6.121821365E-1,5.537684922E0
8.618715125E0,-8.191937435E-1,4.763386869E0,1.246950898E-1,4.834923135E0
8.628792125E0,-1.228675425E0,4.156072832E0,2.337190568E-2,4.333950961E0
8.638870125E0,-1.480153645E0,3.668392242E0,1.941231743E-1,3.960510101E0
8.648948125E0,-1.547151919E0,3.569040447E0,2.158543512E-1,3.895936585E0
8.659026125E0,-1.555912803E0,3.579440889E0,-3.362061292E-2,3.903125936E0
8.669103125E0,-1.616648416E0,3.618144779E0,-3.816767094E-1,3.981231073E0
8.679181125E0,-1.750885285E0,3.685118203E0,-6.530825329E-1,4.131853367E0
8.689259125E0,-1.824606395E0,3.674045915E0,-7.951146170E-1,4.178517576E0
8.699336125E0,-1.905609335E0,3.392632290E0,-7.676484910E-1,3.966180152E0
8.709414125E0,-1.851877517E0,2.966580768E0,-7.685919392E-1,3.580612428E0
8.719492125E0,-1.650754933E0,2.489833887E0,-9.016374376E-1,3.120451042E0
8.729569125E0,-1.287480581E0,2.081087785E0,-9.362131932E-1,2.620119799E0
8.739647125E0,-7.943547714E-1,1.800989199E0,-9.417955300E-1,2.182095419E0
8.749725125E0,-3.484801657E-1,1.427936255E0,-9.302367541E-1,1.739477161E0
8.759803125E0,-3.236828551E-2,9.683684939E-1,-7.895287719E-1,1.249856363E0
8.769880125E0,2.585185602E-1,3.903332198E-1,-4.651854739E-1,6.599919647E-1
8.779958125E0,5.851475349E-1,-2.724241161E-1,-1.119367576E-1,6.550895926E-1
8.790036125E0,9.527847871E-1,-9.211762011E-1,1.740645933E-1,1.336661111E0
8.800113125E0,1.377728553E0,-1.544629723E0,3.119033468E-1,2.093155667E0
8.810191125E0,1.884555558E0,-2.185963445E0,4.543684173E-1,2.921718072E0
8.820269125E0,2.303947978E0,-2.933997159E0,5.912973440E-1,3.777055489E0
8.830346125E0,2.834393056E0,-3.538458340E0,4.104605055E-1,4.552246615E0
8.840424125E0,3.470223087E0,-3.634764320E0,3.715835381E-1,5.039050929E0
8.850502125E0,3.888164813E0,-3.458729215E0,3.940827468E-1,5.218805860E0
8.860580125E0,4.237342697E0,-3.500193576E0,4.346457589E-1,5.513197361E0
8.870657125E0,4.740984432E0,-4.185798322E0,1.009502194E0,6.404446553E0
8.880735125E0,5.281571213E0,-5.068725547E0,1.792004367E0,7.536461557E0
8.890813125E0,5.738303075E0,-5.565067617E0,2.134651204E0,8.273743743E0
8.900890125E0,5.870673512E0,-5.530810534E0,1.590761915E0,8.221021599E0
8.910968125E0,5.731402191E0,-4.929465920E0,7.782989019E-1,7.599628577E0
8.921046125E0,4.780718601E0,-2.945122656E0,6.429627568E-2,5.615438702E0
8.931123125E0,2.870462483E0,-9.407491708E-1,-8.391143301E-1,3.135072045E0
8.941201125E0,1.150232688E0,-3.510539639E-1,-3.366744912E-1,1.248849004E0
8.951279125E0,2.085868469E-1,-8.802339971E-2,7.969667226E-1,8.285001802E-1
8.961357125E0,-5.466513674E-1,-8.045710266E-2,1.349203789E0,1.457961566E0
8.971434125E0,-1.399166200E0,-5.840140522E-1,1.411100367E0,2.071217689E0
8.981512125E0,-2.082924396E0,-1.462251810E0,1.108372471E0,2.775832115E0
8.991590125E0,-2.678915007E0,-2.320384501E0,4.483820379E-1,3.572368444E0
9.001667125E0,-3.184295411E0,-2.950794455E0,-3.524564186E-1,4.355588446E0
9.011745125E0,-3.797278324E0,-3.605292599E0,-1.045960461E0,5.339615218E0
9.021823125E0,-4.821457322E0,-4.553447269E0,-1.250864731E0,6.748703232E0
9.031900125E0,-6.142020571E0,-5.143494478E0,-9.711842206E-1,8.069891631E0
9.041978125E0,-6.744260395E0,-4.621542773E0,-1.029421027E0,8.240352755E0
9.052056125E0,-5.527895113E0,-2.517081912E0,-1.770166478E0,6.326674884E0
9.062133125E0,-3.398578908E0,-3.250379473E-1,-2.514687770E0,4.240240894E0
9.072211125E0,-2.260243549E0,9.344599056E-1,-2.842323343E0,3.749762419E0
9.082289125E0,-1.687195658E0,1.549531444E0,-2.752177111E0,3.580803783E0
9.092367125E0,-1.363210209E0,1.888298653E0,-2.281298788E0,3.260113194E0
9.102444125E0,-1.120204020E0,2.280088999E0,-1.038941756E0,2.744642575E0
9.112522125E0,-8.564226732E-1,2.505523136E0,-4.956137994E-1,2.693833517E0
9.122600125E0,-7.422742063E-1,2.781131061E0,-7.714608756E-1,2.980069271E0
9.132677125E0,-7.072262880E-1,3.192707800E0,-1.183447504E0,3.477657274E0
9.142755125E0,-6.014674062E-1,3.416266150E0,-1.835563785E0,3.924529508E0
9.152833125E0,-3.853683490E-1,3.680494224E0,-2.129383448E0,4.269522265E0
9.162910125E0,-2.106456515E-1,3.883913594E0,-1.887367192E0,4.323344922E0
9.172988125E0,-6.552243680E-2,3.949550929E0,-1.342884411E0,4.172119877E0
9.183066125E0,-7.484728396E-2,4.134694242E0,-8.155944899E-1,4.215031787E0
9.193144125E0,-2.537092254E-1,4.485788552E0,-5.755607325E-1,4.529672997E0
9.203221125E0,-4.861594364E-1,4.877246776E0,-7.833245838E-1,4.963616072E0
9.213299125E0,-5.712244374E-1,5.162554647E0,-9.308957353E-1,5.276820511E0
9.223377125E0,-5.628132176E-1,5.379543065E0,-7.743950084E-1,5.464058010E0
9.233454125E0,-6.569586521E-1,5.407742432E0,-6.403543139E-1,5.485009255E0
9.243532125E0,-7.727896553E-1,5.180960512E0,-5.411340809E-1,5.266154363E0
9.253610125E0,-8.182426938E-1,4.636196480E0,-3.278019261E-1,4.719247081E0
9.263687125E0,-6.451627716E-1,4.110843449E0,-1.531078801E-1,4.163977772E0
9.273765125E0,-4.691340986E-1,3.604438906E0,-1.674057841E-1,3.638693629E0
9.283843125E0,-1.021967581E-1,3.070531983E0,7.936162680E-2,3.073257084E0
9.293921125E0,2.157482243E-1,2.106334893E0,5.410025185E-1,2.185378160E0
9.303998125E0,5.283640543E-1,6.565277123E-1,8.221962887E-1,1.177371627E0
9.314076125E0,1.124322214E0,-9.460140038E-1,9.048373264E-1,1.725622648E0
9.324154125E0,1.758619397E0,-2.210804756E0,1.492172012E0,3.194836016E0
9.334231125E0,2.426425804E0,-3.451153563E0,2.271666962E0,4.791500170E0
9.344309125E0,3.491056132E0,-5.029229944E0,2.240435522E0,6.519216062E0
9.354387125E0,4.788298931E0,-5.873677812E0,1.910592332E0,7.815258201E0
9.364464125E0,5.736460032E0,-5.765468654E0,1.705246305E0,8.309961941E0
9.374542125E0,6.173737038E0,-5.766153363E0,1.657934729E0,8.608850167E0
9.384620125E0,6.478684537E0,-5.776235132E0,1.362562630E0,8.786058420E0
9.394698125E0,6.582843329E0,-5.478032396E0,2.328010440E-1,8.567196832E0
9.404775125E0,5.658673353E0,-4.122398132E0,-1.887249663E0,7.250962817E0
9.414853125E0,3.355037616E0,-2.448499335E0,-3.640885770E0,5.523357276E0
9.424931125E0,1.336873473E0,-2.053721062E0,-4.167625760E0,4.834677379E0
9.435008125E0,3.828625247E-1,-1.852258755E0,-4.075480658E0,4.492993301E0
9.445086125E0,-6.872650632E-1,-1.468357472E0,-4.075007034E0,4.385668622E0
9.455164125E0,-2.147195528E0,-1.245806013E0,-3.092859284E0,3.965887014E0
9.465241000E0,-5.071506482E0,-2.048907049E0,-5.432171515E-1,5.496661075E0
9.475319000E0,-8.745445393E0,-4.351210790E0,4.165289798E0,1.061910964E1
9.485397000E0,-1.213573821E1,-5.979525279E0,6.147533326E0,1.486011543E1
9.495474000E0,-8.614233874E0,-3.522229977E0,4.216477201E0,1.021713312E1
9.505552000E0,-3.978625624E0,-1.611703718E0,2.183683616E0,4.816173260E0
9.515630000E0,-3.524043199E0,-1.437163746E0,2.504642546E0,4.556045915E0
9.525708000E0,-3.272991533E0,-1.377657802E0,4.051891236E0,5.387785926E0
9.535785000E0,-2.350455854E0,-1.439489769E0,4.863600836E0,5.590293965E0
9.545863000E0,-1.267586160E0,-1.622113516E0,5.365261241E0,5.746655995E0
9.555941000E0,-3.561515665E-1,-1.507121004E0,5.166094551E0,5.393217089E0
9.566018000E0,2.076036376E-1,-9.617897916E-1,4.534636191E0,4.640157784E0
9.576096000E0,6.447723238E-1,-1.114543623E-1,3.827592921E0,3.883120008E0
9.586174000E0,1.110651570E0,7.796256351E-1,3.090152608E0,3.374967582E0
9.596251000E0,1.491032098E0,1.762946044E0,2.349249866E0,3.293953613E0
9.606329000E0,1.707230411E0,2.566267521E0,1.397314095E0,3.384206162E0
9.616407000E0,1.275076005E0,3.146550465E0,1.481088030E-1,3.398313532E0
9.626484000E0,4.291856289E-4,3.447518349E0,-1.196502875E0,3.649246782E0
9.636562000E0,-8.673666143E-1,3.545413603E0,-1.921868688E0,4.125028692E0
9.646640000E0,-9.536212313E-1,3.736704093E0,-1.923820488E0,4.309690964E0
9.656718000E0,-9.863580376E-1,3.818006119E0,-1.779195457E0,4.326154109E0
9.666795000E0,-9.536878896E-1,4.048868226E0,-2.034259189E0,4.630449757E0
9.676873000E0,-1.287265403E0,4.281427195E0,-2.462961838E0,5.104297411E0
9.686951000E0,-1.343641917E0,4.457735950E0,-2.595286083E0,5.330318307E0
9.697028000E0,-1.454136752E0,4.571677133E0,-2.655266236E0,5.483172830E0
9.707106000E0,-1.510845096E0,4.579506555E0,-2.828398198E0,5.590560755E0
9.717184000E0,-1.356126892E0,4.486302522E0,-2.922706186E0,5.523423025E0
9.727261000E0,-9.965935886E-1,4.279557840E0,-2.945617915E0,5.290035821E0
9.737339000E0,-7.886702545E-1,3.902556857E0,-2.868260129E0,4.907022209E0
9.747417000E0,-8.164933531E-1,3.308593767E0,-2.667132283E0,4.327476023E0
9.757495000E0,-9.734758906E-1,2.692642223E0,-2.374736417E0,3.719858936E0
9.767572000E0,-9.203514513E-1,2.174807543E0,-2.015144641E0,3.104455277E0
9.777650000E0,-7.321386427E-1,1.626638092E0,-1.573619049E0,2.378708764E0
9.787728000E0,-4.250361523E-1,1.072322048E0,-1.209327281E0,1.671227925E0
9.797805000E0,7.425379157E-3,2.959316772E-1,-8.668415344E-1,9.159939626E-1
9.807883000E0,4.971501553E-1,-6.684700656E-1,-4.175753975E-1,9.318689383E-1
9.817961000E0,1.070940789E0,-1.467391512E0,5.875077635E-2,1.817581822E0
9.828038000E0,1.599509204E0,-2.087053115E0,4.813553640E-1,2.673185999E0
9.838116000E0,2.071184649E0,-2.362149993E0,9.305066031E-1,3.276492176E0
9.848194000E0,2.413975473E0,-2.524869819E0,1.248804757E0,3.709684422E0
9.858271000E0,2.730621643E0,-2.665023485E0,1.360154454E0,4.050761024E0
9.868349000E0,3.003632235E0,-2.762211810E0,1.507787294E0,4.350292313E0
9.878427000E0,3.256881869E0,-2.819103464E0,1.525835602E0,4.569770031E0
9.888505000E0,3.516377499E0,-2.742303210E0,1.411872200E0,4.677448099E0
9.898582000E0,3.628429447E0,-2.602874599E0,1.470667123E0,4.701416618E0
9.908660000E0,3.790526544E0,-2.576587856E0,1.356109351E0,4.779741524E0
9.918738000E0,4.212145876E0,-3.127299092E0,1.563013369E0,5.474046335E0
9.928815000E0,4.568934204E0,-4.219871217E0,2.106489552E0,6.566564633E0
9.938893000E0,4.880965605E0,-5.114591106E0,2.782296996E0,7.597634105E0
9.948971000E0,5.202449614E0,-5.578413886E0,3.023808345E0,8.205339748E0
9.959048000E0,5.406453706E0,-5.387399969E0,3.069878849E0,8.226662522E0
9.969126000E0,5.178933282E0,-4.325331014E0,2.858100592E0,7.327931312E0
9.979204000E0,3.260160111E0,-3.189860206E0,2.018373474E0,4.987753358E0
9.989282000E0,1.540076057E0,-2.018969305E0,1.692055279E0,3.051413178E0
9.999359000E0,4.153881003E-1,-8.495729524E-1,1.554369138E0,1.819446314E0
1.000943700E1,-2.915521127E-1,-7.525951266E-2,1.455305902E0,1.486129839E0
1.001951500E1,-8.496485277E-1,7.636872947E-2,1.280486141E0,1.538629117E0
1.002959200E1,-1.440818841E0,-3.781014293E-1,1.070343935E0,1.834272543E0
1.003967000E1,-2.170645202E0,-1.133623087E0,1.071187688E0,2.672872043E0
1.004974800E1,-2.824452790E0,-1.840688285E0,7.807716894E-1,3.460530502E0
1.005982500E1,-3.450722915E0,-2.238261527E0,-4.574013680E-2,4.113319275E0
1.006990300E1,-4.164917330E0,-2.562089685E0,-7.412272623E-1,4.945731268E0
1.007998100E1,-4.849726270E0,-2.750512117E0,-1.261837324E0,5.716414544E0
1.009005800E1,-5.337637825E0,-2.557343500E0,-1.634202050E0,6.140113979E0
1.010013600E1,-5.428663770E0,-1.890340501E0,-1.636593561E0,5.976806507E0
1.011021400E1,-5.391417591E0,-1.010862549E0,-1.403200340E0,5.661995932E0
1.012029200E1,-5.294083085E0,5.060765147E-2,-1.284420733E0,5.447899913E0
1.013036900E1,-4.622678010E0,1.375297866E0,-1.623901303E0,5.088973535E0
1.014044700E1,-3.600420991E0,2.217126181E0,-2.058480111E0,4.702767290E0
1.015052500E1,-2.812406941E0,2.790650328E0,-2.330783774E0,4.596728734E0
1.016060200E1,-2.404897817E0,3.375337980E0,-2.587165470E0,4.885679600E0
1.017068000E1,-2.187525529E0,3.819073820E0,-2.851848457E0,5.244390566E0
1.018075800E1,-1.996914485E0,4.054489739E0,-2.966195437E0,5.406003133E0
1.019083500E1,-1.883059548E0,4.331493394E0,-2.902247363E0,5.543535699E0
1.020091300E1,-1.823828423E0,4.521191688E0,-2.736144338E0,5.590528619E0
1.021099100E1,-1.822829719E0,4.638769255E0,-2.513052596E0,5.581784816E0
1.022106900E1,-1.801192097E0,4.702003384E0,-2.285939723E0,5.529796489E0
1.023114600E1,-1.667535272E0,4.444302557E0,-2.088349442E0,5.185913853E0
1.024122400E1,-1.444494108E0,4.067143698E0,-1.991646143E0,4.753406721E0
1.025130200E1,-1.278665611E0,3.879220619E0,-2.024734952E0,4.558825505E0
1.026137900E1,-1.098078156E0,3.831434834E0,-1.920475881E0,4.424239611E0
1.027145700E1,-7.939785030E-1,3.791738672E0,-1.682196581E0,4.223442832E0
1.028153500E1,-4.943604487E-1,3.540008436E0,-1.341120013E0,3.817676633E0
1.029161200E1,-2.798427710E-1,3.280176884E0,-9.553783196E-1,3.427917750E0
1.030169000E1,-7.570419341E-2,3.044389082E0,-5.441617692E-1,3.093565587E0
1.031176800E1,2.004565859E-1,2.527523285E0,-1.433658341E-1,2.539509906E0
1.032184500E1,5.922890317E-1,1.717088086E0,-4.458785525E-1,1.870295558E0
1.033192300E1,9.385994419E-1,1.103672479E0,-5.881845787E-1,1.563656917E0
1.034200100E1,1.224171315E0,4.149681240E-1,-3.866676003E-1,1.349187083E0
1.035207900E1,1.538737484E0,-3.537740886E-1,-9.079468757E-2,1.581490697E0
1.036215600E1,1.897481998E0,-1.134468595E0,2.469852197E-1,2.224513121E0
1.037223400E1,2.280730731E0,-1.858095446E0,5.043632805E-1,2.984733434E0
1.038231200E1,2.646692464E0,-2.417293915E0,7.888806081E-1,3.670234799E0
1.039238900E1,2.962032512E0,-2.899916078E0,9.798530102E-1,4.259490789E0
1.040246700E1,3.242995609E0,-3.202803603E0,1.008781233E0,4.668255671E0
1.041254500E1,3.363149459E0,-3.074187078E0,9.108181509E-1,4.646610612E0
1.042262200E1,3.324092982E0,-2.591522230E0,6.189336240E-1,4.260124464E0
1.043270000E1,3.339362401E0,-2.670533901E0,4.713843995E-1,4.301778215E0
1.044277800E1,3.896227831E0,-3.537443848E0,2.705886751E-1,5.269470421E0
1.045285600E1,4.648103165E0,-4.499905484E0,-2.330817103E-2,6.469509693E0
1.046293337E1,5.205453329E0,-5.080440443E0,-2.825503242E-1,7.279248185E0
1.047301137E1,5.362742261E0,-4.773095586E0,1.530178329E-1,7.180867669E0
1.048308937E1,4.808076846E0,-4.054492663E0,1.793101597E0,6.540009713E0
1.049316637E1,3.573643083E0,-4.097741593E0,4.719949658E0,7.200023321E0
1.050324437E1,2.210430534E0,-3.516396795E0,6.281689503E0,7.530648882E0
1.051332237E1,1.256683296E0,-1.643901411E0,3.697636214E0,4.237237110E0
1.052339937E1,6.833930370E-1,-6.570960617E-1,1.747355321E0,1.987976834E0
1.053347737E1,3.517275631E-2,-3.822523677E-1,1.436306545E0,1.486718025E0
1.054355537E1,-6.649395168E-1,-4.649834526E-1,1.542702481E0,1.743067731E0
1.055363337E1,-1.261408138E0,-8.509856397E-1,1.625280661E0,2.226401643E0
1.056371037E1,-1.873200558E0,-1.167035247E0,1.835738324E0,2.870677062E0
1.057378837E1,-2.466972443E0,-1.478341008E0,2.108985728E0,3.566407994E0
1.058386637E1,-2.826943996E0,-1.691443952E0,2.010858340E0,3.859552599E0
1.059394337E1,-3.037852187E0,-2.008574710E0,1.944999688E0,4.128673160E0
1.060402137E1,-3.226335430E0,-2.177154615E0,1.859915099E0,4.313760158E0
1.061409937E1,-3.371772640E0,-2.158721852E0,1.981898543E0,4.467309325E0
1.062417737E1,-2.945830754E0,-1.307782406E0,2.402065426E0,4.019717896E0
1.063425437E1,-2.169449154E0,1.863688892E-1,2.430177962E0,3.262975317E0
1.064433237E1,-1.903773017E0,1.088039364E0,1.810143307E0,2.843378299E0
1.065441037E1,-1.755974701E0,1.594776614E0,9.891743490E-1,2.570063325E0
1.066448738E1,-1.677468230E0,2.114853117E0,3.442957520E-1,2.721220853E0
1.067456537E1,-1.919175460E0,2.469520075E0,9.772393048E-2,3.129107511E0
1.068464337E1,-2.342593103E0,2.775497269E0,-1.680489779E-2,3.631998065E0
1.069472038E1,-2.645625639E0,3.131690351E0,-1.444370440E-1,4.102155718E0
1.070479837E1,-2.767552072E0,3.488559955E0,-2.986143798E-1,4.463022024E0
1.071487637E1,-2.908598316E0,3.741309360E0,-5.862558746E-1,4.775043020E0
1.072495437E1,-2.848737446E0,3.968839139E0,-8.923143446E-1,4.966207209E0
1.073503137E1,-2.598721907E0,3.994542330E0,-1.101842593E0,4.891194238E0
1.074510937E1,-2.237233002E0,3.870696548E0,-1.091669315E0,4.602091390E0
1.075518738E1,-1.960049544E0,3.569180195E0,-9.408193374E-1,4.179232287E0
1.076526437E1,-1.712883646E0,3.337495970E0,-7.765067303E-1,3.830902300E0
1.077534237E1,-1.475032946E0,3.239222401E0,-7.045412466E-1,3.628313978E0
1.078542038E1,-1.173106119E0,3.221721684E0,-6.797572383E-1,3.495388173E0
1.079549737E1,-9.960851732E-1,3.160057533E0,-6.557082251E-1,3.377588276E0
1.080557537E1,-8.869504014E-1,3.102923219E0,-6.629058552E-1,3.294580048E0
1.081565338E1,-8.554461882E-1,3.026077357E0,-6.847370195E-1,3.218353172E0
1.082573137E1,-7.675540584E-1,2.822118289E0,-7.908841565E-1,3.029684574E0
1.083580837E1,-4.761808705E-1,2.595141656E0,-7.945874906E-1,2.755517686E0
1.084588637E1,-2.589576861E-1,2.265980837E0,-7.470765245E-1,2.399969077E0
1.085596437E1,5.273194492E-2,1.924235056E0,-5.799131075E-1,2.010412998E0
1.086604137E1,3.949595368E-1,1.511424555E0,-3.526803669E-1,1.601493260E0
1.087611937E1,8.133705014E-1,1.031679221E0,-5.943694711E-2,1.315091761E0
1.088619737E1,1.182805772E0,5.011636841E-1,3.012166831E-1,1.319441558E0
1.089627437E1,1.537948987E0,5.568595827E-2,6.177346525E-1,1.658307605E0
1.090635237E1,1.967989771E0,-4.488275957E-1,9.234563228E-1,2.219730058E0
1.091643037E1,2.408461403E0,-1.102058648E0,1.202119418E0,2.908661322E0
1.092650737E1,2.870178308E0,-1.834482050E0,1.391568913E0,3.679634758E0
1.093658537E1,3.293583672E0,-2.429022844E0,1.428402278E0,4.334533245E0
1.094666337E1,3.664721068E0,-2.540186015E0,1.205755509E0,4.619152719E0
1.095674137E1,3.833789215E0,-2.289742168E0,8.204684365E-1,4.540267327E0
1.096681837E1,4.008867424E0,-2.247444579E0,6.568577877E-1,4.642573350E0
1.097689637E1,4.313897368E0,-3.140073504E0,1.074171815E0,5.442758235E0
1.098697437E1,4.820948029E0,-4.813418570E0,1.850611887E0,7.059412340E0
1.099705137E1,5.341122766E0,-6.404816077E0,2.470605026E0,8.697881959E0
1.100712937E1,5.748857299E0,-7.223672436E0,2.618791890E0,9.596294841E0
1.101720737E1,5.927992598E0,-6.973052588E0,2.057536955E0,9.380725822E0
1.102728437E1,5.640321282E0,-5.329802556E0,7.752174193E-1,7.798780770E0
1.103736238E1,4.913126460E0,-2.957905254E0,-1.821629870E-1,5.737699754E0
1.104744037E1,3.986815527E0,-1.090103431E0,-4.971118560E-1,4.162948923E0
1.105751837E1,2.051023157E0,-3.955886972E-1,-4.719612274E-1,2.141479350E0
1.106759538E1,8.098349825E-1,-1.186785972E-1,1.218933964E-1,8.275115155E-1
1.107767337E1,-2.884548426E-2,-4.108125079E-1,1.573731900E0,1.626724030E0
1.108775137E1,-8.278005525E-1,-1.525285379E0,2.721168742E0,3.227461629E0
1.109782838E1,-1.518860459E0,-2.413405516E0,1.995613187E0,3.480507904E0
1.110790637E1,-1.996910684E0,-2.912913854E0,9.166910943E-1,3.648704148E0
1.111798437E1,-2.349189347E0,-3.111587623E0,-1.040500331E-1,3.900191603E0
1.112806137E1,-2.813959084E0,-3.194702870E0,-8.601336086E-1,4.343307724E0
1.113813937E1,-3.664058871E0,-3.155177447E0,-1.315216263E0,5.011014463E0
1.114821737E1,-4.860400947E0,-3.041859577E0,-1.760206770E0,5.997894208E0
1.115829538E1,-6.157244382E0,-2.562577343E0,-1.889227776E0,6.931640686E0
1.116837237E1,-7.619470464E0,-1.959650472E0,-1.976789392E0,8.111982275E0
1.117845037E1,-8.905667288E0,-1.243923209E0,-2.295722700E0,9.280549419E0
1.118852838E1,-8.502750860E0,2.701659214E-1,-2.651690079E0,8.910736339E0
1.119860537E1,-6.401128238E0,2.138797465E0,-2.898688163E0,7.345154211E0
1.120868337E1,-4.763804652E0,3.217364924E0,-3.087003590E0,6.524941608E0
1.121876137E1,-3.581161140E0,3.820443823E0,-3.159193314E0,6.115636395E0
1.122883937E1,-2.843013314E0,4.206920804E0,-3.104045885E0,5.951135035E0
1.123891637E1,-2.408639451E0,4.364764051E0,-2.947408333E0,5.791366428E0
1.124899437E1,-2.072930627E0,4.448500273E0,-2.808503340E0,5.654545700E0
1.125907237E1,-1.963794978E0,4.531329591E0,-2.544134640E0,5.555363142E0
1.126914937E1,-2.002361166E0,4.509246411E0,-2.275676690E0,5.433365241E0
1.127922737E1,-2.127424338E0,4.396344863E0,-2.135092084E0,5.330328384E0
1.128930537E1,-2.073573236E0,4.387985684E0,-2.222395692E0,5.337899113E0
1.129938237E1,-2.017242915E0,4.317635493E0,-2.218967031E0,5.256905926E0
1.130946037E1,-1.954168999E0,4.124804261E0,-2.097008146E0,5.022970220E0
1.131953837E1,-1.819491251E0,3.801871312E0,-1.900209432E0,4.623372121E0
1.132961537E1,-1.612640735E0,3.461378589E0,-1.832331152E0,4.235468017E0
1.133969337E1,-1.374733025E0,3.123696622E0,-1.784954379E0,3.851419688E0
1.134977137E1,-1.051504206E0,2.736487570E0,-1.646751344E0,3.362412126E0
1.135984937E1,-6.578445053E-1,2.255634774E0,-1.395087475E0,2.732565953E0
1.136992637E1,-2.633735034E-1,1.731900837E0,-1.189252912E0,2.117349429E0
1.138000437E1,1.829687333E-1,1.197365339E0,-8.887969521E-1,1.502371903E0
1.139008237E1,7.195089492E-1,6.994345808E-1,-3.775140765E-1,1.072109481E0
1.140015937E1,1.213912960E0,2.383389419E-1,1.244363505E-1,1.243332027E0
1.141023737E1,1.594995592E0,-2.670891166E-1,4.911047190E-1,1.690127622E0
1.142031537E1,1.985364334E0,-8.016491729E-1,6.496744832E-1,2.237496339E0
1.143039237E1,2.311600083E0,-1.289741406E0,6.939180252E-1,2.736503255E0
1.144047038E1,2.643149051E0,-1.795448962E0,7.907397303E-1,3.291677870E0
1.145054837E1,2.988120157E0,-2.255254705E0,9.023212695E-1,3.850872567E0
1.146062667E1,3.352531208E0,-2.664471508E0,1.169898921E0,4.439317222E0
1.147070367E1,3.639794972E0,-3.120359032E0,2.156524469E0,5.256933109E0
1.148078167E1,3.701854103E0,-2.946810163E0,3.520852666E0,5.897780721E0
1.149085967E1,3.965759411E0,-2.487240647E0,3.286584263E0,5.719724631E0
1.150093667E1,4.480147450E0,-2.578017501E0,2.498915198E0,5.741295374E0
1.151101467E1,5.201978914E0,-3.090266336E0,2.538463426E0,6.561564387E0
1.152109267E1,6.102220913E0,-3.695236809E0,2.958040033E0,7.722815289E0
1.153116967E1,6.975717748E0,-4.409695226E0,3.623070181E0,9.012917820E0
1.154124767E1,6.779386958E0,-4.712013232E0,4.123199785E0,9.228430673E0
1.155132567E1,5.933143995E0,-3.381854117E0,3.541812010E0,7.693085678E0
1.156140367E1,4.625353988E0,-1.112723969E0,2.037987374E0,5.175465842E0
1.157148067E1,2.715745449E0,3.771056485E-1,8.821822894E-1,2.880230478E0
1.158155867E1,1.095158349E0,5.623349154E-1,6.615051547E-1,1.397562677E0
1.159163667E1,2.569398120E-1,3.396565711E-1,1.124195914E0,1.202165174E0
1.160171367E1,-1.526757708E-1,-2.185683364E-1,1.371011564E0,1.396694211E0
1.161179167E1,-4.299144843E-1,-8.391070211E-1,1.564150652E0,1.826333573E0
1.162186967E1,-4.662575608E-1,-1.670405670E0,1.894774152E0,2.568622258E0
1.163194767E1,-4.250060391E-1,-2.370731367E0,2.104013548E0,3.198104182E0
1.164202467E1,-6.215979078E-1,-2.649854053E0,2.111785083E0,3.444959608E0
1.165210267E1,-8.691593707E-1,-2.350429249E0,1.491206345E0,2.916102198E0
1.166218067E1,-1.184552336E0,-2.111251817E0,1.268719497E0,2.733166228E0
1.167225767E1,-1.737462709E0,-1.881846251E0,1.497235701E0,2.966788958E0
1.168233567E1,-2.449677549E0,-1.667864470E0,2.057427027E0,3.607727534E0
1.169241367E1,-2.980524331E0,-1.383341880E0,1.944529864E0,3.818161395E0
1.170249067E1,-3.240504110E0,-5.475022835E-1,7.255260265E-1,3.365562903E0
1.171256867E1,-3.372929512E0,3.123629379E-1,-4.153730437E-1,3.412734807E0
1.172264667E1,-3.710679306E0,1.075423996E0,-9.706565094E-1,3.983447218E0
1.173272367E1,-4.104965243E0,1.742434012E0,-1.317403414E0,4.649985773E0
1.174280167E1,-4.516344346E0,2.298610055E0,-1.505150785E0,5.286440515E0
1.175287967E1,-4.864601295E0,2.741500388E0,-1.706801372E0,5.838950339E0
1.176295767E1,-5.100254903E0,3.134443220E0,-1.968745816E0,6.301848495E0
1.177303467E1,-5.193077112E0,3.570336775E0,-2.267258162E0,6.697448331E0
1.178311267E1,-5.048510553E0,4.055826997E0,-2.488820857E0,6.937681219E0
1.179319067E1,-4.390994076E0,4.464951999E0,-2.562134416E0,6.766177510E0
1.180326767E1,-3.645385787E0,4.599620392E0,-2.585745473E0,6.413378590E0
1.181334567E1,-3.147243944E0,4.565804774E0,-2.517141261E0,6.089968622E0
1.182342367E1,-2.795421072E0,4.397669258E0,-2.176493002E0,5.647211317E0
1.183350067E1,-2.503310842E0,4.063685655E0,-1.763572573E0,5.088250632E0
1.184357867E1,-2.222414111E0,3.693753371E0,-1.454714749E0,4.549630034E0
1.185365667E1,-1.960178183E0,3.390086412E0,-1.239114167E0,4.107357826E0
1.186373467E1,-1.644018063E0,3.070573499E0,-1.105400916E0,3.654193234E0
1.187381167E1,-1.303228009E0,2.774302098E0,-9.575909060E-1,3.211251426E0
1.188388967E1,-9.127471474E-1,2.429989389E0,-6.664785039E-1,2.679953243E0
1.189396767E1,-4.687019894E-1,2.006057484E0,-4.323109657E-2,2.060538063E0
1.190404467E1,-2.060441852E-2,1.554216233E0,6.397543895E-1,1.680862374E0
1.191412267E1,4.224078289E-1,1.064894915E0,1.005721092E0,1.524435787E0
1.192420067E1,8.495092177E-1,5.875802690E-1,1.081445751E0,1.495473636E0
1.193427767E1,1.261423633E0,8.908233047E-2,1.018982285E0,1.624022827E0
1.194435567E1,1.691794201E0,-4.175765669E-1,8.467072320E-1,1.937382498E0
1.195443367E1,2.147449882E0,-9.944488299E-1,7.807462540E-1,2.491994018E0
1.196451167E1,2.555241134E0,-1.531165924E0,9.074554172E-1,3.114033024E0
1.197458867E1,2.931947710E0,-1.875653465E0,1.015839991E0,3.625786009E0
1.198466667E1,3.272469961E0,-2.283043013E0,1.156250643E0,4.154306271E0
1.199474467E1,3.622755016E0,-2.749314022E0,1.226163169E0,4.710260886E0
1.200482167E1,3.965268537E0,-2.964495066E0,1.045878600E0,5.060182567E0
1.201489967E1,4.200863673E0,-2.871376988E0,7.733235061E-1,5.146852499E0
1.202497767E1,4.401522865E0,-2.553610053E0,3.863047805E-1,5.103289059E0
1.203505467E1,5.190374529E0,-2.322567267E0,1.320871398E-1,5.687860184E0
1.204513267E1,5.593106185E0,-3.006791486E0,3.675746870E-1,6.360718748E0
1.205521067E1,5.928492535E0,-4.033541504E0,2.746273470E-1,7.175785740E0
1.206528867E1,6.624340433E0,-4.877354364E0,5.731999192E-1,8.246152431E0
1.207536567E1,7.067861096E0,-5.203637184E0,8.543203068E-1,8.818297092E0
1.208544367E1,6.829062563E0,-4.839825180E0,3.932495186E-1,8.379418145E0
1.209552167E1,5.938731594E0,-3.583526924E0,-3.576110315E-1,6.945364196E0
1.210559867E1,3.927581186E0,-2.423935182E0,-7.901108623E-1,4.682481277E0
1.211567667E1,2.330389964E0,-1.378305089E0,-5.516587767E-1,2.763108704E0
1.212575467E1,1.263028694E0,-5.765290314E-1,-1.955276754E-1,1.402090681E0
1.213583167E1,3.860881412E-1,-1.401162440E-1,3.111619198E-1,5.152847319E-1
1.214590967E1,-1.723712397E-1,-4.103885847E-1,1.134805102E0,1.218980416E0
1.215598767E1,-6.804086182E-1,-1.107192503E0,1.960977790E0,2.352501864E0
1.216606567E1,-1.185125948E0,-1.800716718E0,2.471374812E0,3.279450819E0
1.217614267E1,-1.123332280E0,-2.321196095E0,1.856259712E0,3.177345880E0
1.218622067E1,-1.332293934E0,-2.419680748E0,2.469711864E-1,2.773239408E0
1.219629867E1,-2.105014007E0,-2.346320411E0,-8.378817371E-1,3.261648241E0
1.220637567E1,-2.896508613E0,-2.009039564E0,-1.479247619E0,3.822849151E0
1.221645367E1,-3.894505826E0,-1.751253367E0,-1.465890240E0,4.514742316E0
1.222653167E1,-5.518734280E0,-1.785581201E0,-1.382291428E0,5.962839749E0
1.223660867E1,-7.986274488E0,-1.976684580E0,-1.348051303E0,8.336972139E0
1.224668667E1,-1.110107925E1,-2.605574259E0,-1.577861788E0,1.151141284E1
1.225676467E1,-1.115664651E1,-1.576200010E0,-1.947564862E0,1.143451690E1
1.226684267E1,-7.479025022E0,1.315701874E0,-2.257901739E0,7.922436933E0
1.227691967E1,-4.970602836E0,3.112878104E0,-2.533310859E0,6.388627908E0
1.228699767E1,-3.781070134E0,4.019321076E0,-2.734153654E0,6.158492467E0
1.229707567E1,-2.984400450E0,4.264320581E0,-2.835569516E0,5.927185719E0
1.230715267E1,-2.550288542E0,4.291622985E0,-2.676393396E0,5.664369436E0
1.231723067E1,-2.335750399E0,4.398375601E0,-2.533426634E0,5.587458131E0
1.232730867E1,-2.259147196E0,4.562298199E0,-2.481921435E0,5.663765966E0
1.233738567E1,-2.275385207E0,4.627892264E0,-2.348738819E0,5.666686747E0
1.234746367E1,-2.275122374E0,4.445889491E0,-2.121338264E0,5.426065906E0
1.235754167E1,-2.244879405E0,4.017624214E0,-1.951997636E0,4.999108184E0
1.236761967E1,-2.171985092E0,3.561232075E0,-1.951337631E0,4.605172275E0
1.237769667E1,-2.070623316E0,3.358416722E0,-1.831274267E0,4.349713696E0
1.238777467E1,-1.905721017E0,3.042437866E0,-1.707753152E0,3.975502685E0
1.239785267E1,-1.669670091E0,2.685142000E0,-1.707391941E0,3.593462538E0
1.240792967E1,-1.395958125E0,2.431041888E0,-1.501647133E0,3.180189910E0
1.241800767E1,-9.980542231E-1,2.167105590E0,-1.143687315E0,2.645841935E0
1.242808567E1,-5.726882878E-1,1.806194390E0,-7.757878152E-1,2.047475710E0
1.243816267E1,-1.015500560E-1,1.417639309E0,-5.062320507E-1,1.508736064E0
1.244824067E1,4.228077784E-1,9.886589170E-1,-3.053837013E-1,1.117797869E0
1.245831867E1,8.644254649E-1,5.406546092E-1,-1.797211897E-1,1.035296333E0
1.246839675E1,1.237308108E0,2.196038783E-2,-6.718187660E-2,1.239325227E0
1.247847375E1,1.645337341E0,-6.276488990E-1,8.469194859E-2,1.763023208E0
1.248855175E1,2.099503153E0,-1.415353047E0,3.500678310E-1,2.556107436E0
1.249862975E1,2.566758687E0,-2.155838590E0,4.360224858E-1,3.380237535E0
1.250870675E1,3.029169949E0,-3.032140335E0,5.765290314E-1,4.324596087E0
1.251878475E1,3.415089106E0,-3.806268418E0,1.708404094E0,5.391582089E0
1.252886275E1,3.888578503E0,-4.505759717E0,2.959090777E0,6.646738420E0
1.253893975E1,4.124032429E0,-4.226908341E0,2.214082998E0,6.306866188E0
1.254901775E1,3.857026050E0,-3.162720940E0,6.538704452E-1,5.030606351E0
1.255909575E1,3.798959106E0,-2.447038116E0,-5.782694551E-1,4.555708660E0
1.256917375E1,3.811093248E0,-2.368656775E0,-1.154339772E0,4.633299793E0
1.257925075E1,3.672911263E0,-2.487164049E0,-1.059127221E0,4.560483814E0
1.258932875E1,4.160889476E0,-2.084227155E0,-1.254533274E0,4.819840018E0
1.259940675E1,5.545903952E0,-9.789776820E-1,-6.839037913E-1,5.673021447E0
1.260948375E1,6.896240639E0,-2.668932348E-1,1.954506384E0,7.172828044E0
1.261956175E1,6.412194094E0,-1.056968429E0,4.518536175E0,7.915212222E0
1.262963975E1,5.742370983E0,-1.378536054E0,5.230953037E0,7.889109951E0
1.263971675E1,5.204111978E0,-6.023129135E-1,5.311299627E0,7.460259114E0
1.264979475E1,4.529893515E0,2.135169268E-1,4.808423586E0,6.609573519E0
1.265987275E1,1.869494008E0,-4.765831590E-2,2.574667046E0,3.182167431E0
1.266994975E1,2.135783225E-2,-8.815753484E-1,1.993340082E0,2.179687118E0
1.268002775E1,-7.340299246E-1,-1.017205608E0,2.603471307E0,2.889908308E0
1.269010575E1,-1.290837467E0,-9.741472971E-1,3.206019279E0,3.590791548E0
1.270018375E1,-1.557350340E0,-1.220895705E0,2.872650219E0,3.488272593E0
1.271026075E1,-1.738062049E0,-1.535729676E0,2.326634005E0,3.285201838E0
1.272033875E1,-1.965092768E0,-1.638545946E0,2.022532306E0,3.261450495E0
1.273041675E1,-2.067651761E0,-1.903849908E0,1.958590079E0,3.425770479E0
1.274049375E1,-2.344672081E0,-2.027677563E0,2.283727137E0,3.850243253E0
1.275057175E1,-2.709719894E0,-1.586068940E0,2.434929994E0,3.973295944E0
1.276064975E1,-3.005853592E0,-1.038145072E0,2.465036138E0,4.023593440E0
1.277072675E1,-3.139234428E0,-1.096656990E-1,2.029010729E0,3.739479095E0
1.278080475E1,-3.229974152E0,8.603569722E-1,1.143843436E0,3.532891868E0
1.279088275E1,-3.295140786E0,1.661197475E0,1.193644756E-1,3.692123742E0
1.280096075E1,-3.555478123E0,2.278764020E0,-5.194657615E-1,4.254883643E0
1.281103775E1,-3.884081702E0,2.911629805E0,-7.380908158E-1,4.910036338E0
1.282111575E1,-4.187941034E0,3.364932275E0,-7.556807023E-1,5.425188720E0
1.283119375E1,-4.349131520E0,3.542979991E0,-7.543644941E-1,5.660098762E0
1.284127075E1,-4.427210560E0,3.524339068E0,-8.499597457E-1,5.722201568E0
1.285134875E1,-4.375116547E0,3.468879397E0,-1.022694975E0,5.676325755E0
1.286142675E1,-4.269498875E0,3.413271207E0,-1.241310381E0,5.605344988E0
1.287150375E1,-3.882084585E0,3.472947890E0,-1.359581720E0,5.383345635E0
1.288158175E1,-2.844424832E0,3.667787640E0,-9.921318707E-1,4.746340111E0
1.289165975E1,-2.458119467E0,3.600057587E0,-1.051113027E0,4.484150370E0
1.290173675E1,-2.280542451E0,3.333944371E0,-1.310830267E0,4.246685169E0
1.291181475E1,-1.916645955E0,3.007783758E0,-1.320254809E0,3.803073443E0
1.292189275E1,-1.485540685E0,2.624582387E0,-1.244349471E0,3.262463707E0
1.293197075E1,-1.045729496E0,2.228283253E0,-1.060699245E0,2.680275979E0
1.294204775E1,-6.397043958E-1,1.807225839E0,-8.712386405E-1,2.105788146E0
1.295212575E1,-2.822576711E-1,1.543117633E0,-7.389290142E-1,1.734040804E0
1.296220375E1,-1.273465097E-2,1.390819300E0,-7.072327200E-1,1.560358490E0
1.297228075E1,2.180841869E-1,1.235892059E0,-7.031139413E-1,1.438526714E0
1.298235875E1,4.396632546E-1,1.029311099E0,-6.196999016E-1,1.279379961E0
1.299243675E1,6.336624679E-1,7.814084512E-1,-5.555717334E-1,1.149255081E0
1.300251375E1,9.440051928E-1,5.502609998E-1,-4.846116784E-1,1.195316465E0
1.301259175E1,1.219180424E0,1.349256706E-1,-2.542559400E-1,1.252697859E0
1.302266975E1,1.924871233E0,-3.802730852E-1,1.228076085E-1,1.965914187E0
1.303274775E1,3.136811342E0,-8.075607079E-1,9.577174982E-1,3.377715574E0
1.304282475E1,4.109413805E0,-1.159622732E0,1.518467818E0,4.531859576E0
1.305290275E1,4.537703640E0,-1.653255787E0,1.425183386E0,5.035390423E0
1.306298075E1,4.831529151E0,-2.070069292E0,1.267084615E0,5.406881192E0
1.307305775E1,4.917488483E0,-2.268362993E0,1.115055546E0,5.529060727E0
1.308313575E1,4.833007911E0,-2.086846708E0,7.851913074E-1,5.322538872E0
1.309321375E1,4.727226810E0,-1.442927347E0,3.224233648E-1,4.953046484E0
1.310329075E1,5.073752983E0,-8.831114119E-1,7.225141257E-2,5.150541269E0
1.311336875E1,5.594614767E0,-9.695595717E-1,1.718707180E-1,5.680607335E0
1.312344675E1,6.564601185E0,-1.529017072E0,4.904536316E-1,6.758137813E0
1.313352475E1,7.354672287E0,-2.473748782E0,9.221947861E-1,7.814158989E0
1.314360175E1,7.544897414E0,-3.250206395E0,1.045660499E0,8.281468740E0
1.315367975E1,7.515957205E0,-3.812387529E0,1.447706276E0,8.551009580E0
1.316375775E1,6.062410730E0,-4.245586102E0,2.148207389E0,7.706660768E0
1.317383475E1,3.818254625E0,-3.753158743E0,2.226881968E0,5.798643999E0
1.318391275E1,2.241393588E0,-2.240574101E0,1.832582582E0,3.660925626E0
1.319399075E1,7.716053018E-1,-9.194939572E-1,1.160491043E0,1.669605744E0
1.320406775E1,-4.227525222E-1,-3.050773072E-1,9.337301731E-1,1.069412874E0
1.321414575E1,-1.389972623E0,-5.899489760E-2,1.312870653E0,1.912886207E0
1.322422375E1,-1.530915956E0,-4.727491397E-1,1.923002171E0,2.503024722E0
1.323430075E1,-1.598006323E0,-1.401316221E0,2.238330816E0,3.086654533E0
1.324437875E1,-1.690307838E0,-2.248020530E0,1.872770203E0,3.379053880E0
1.325445675E1,-1.199696624E0,-2.245919040E0,6.851685441E-1,2.636831481E0
1.326453475E1,-1.124525112E0,-1.767191123E0,-5.124195743E-1,2.156407896E0
1.327461175E1,-1.300675407E0,-1.470252555E0,-1.660289110E0,2.570984057E0
1.328468975E1,-1.739546657E0,-1.667194964E0,-2.283521900E0,3.319643638E0
1.329476775E1,-2.651790651E0,-1.370450524E0,-1.749703855E0,3.459998826E0
1.330484475E1,-4.127665596E0,-9.174515247E-1,-9.795103633E-1,4.340366474E0
1.331492275E1,-6.461215396E0,-1.275419236E0,-6.544618911E-1,6.618332040E0
1.332500075E1,-9.456523535E0,-2.295115759E0,-1.200024215E0,9.804766791E0
1.333507775E1,-1.187941967E1,-2.753014725E0,-1.876148285E0,1.233773213E1
1.334515575E1,-9.371650615E0,-1.596184623E-1,-2.492240601E0,9.698689422E0
1.335523375E1,-5.552590243E0,2.396842108E0,-2.755563234E0,6.645994225E0
1.336531075E1,-4.174927763E0,3.686741974E0,-3.074832026E0,6.362128590E0
1.337538875E1,-3.501981362E0,4.486866778E0,-3.176255490E0,6.518009349E0
1.338546675E1,-3.038214130E0,4.648730571E0,-3.156787770E0,6.388016128E0
1.339554475E1,-2.712634731E0,4.562382399E0,-2.981689389E0,6.088036789E0
1.340562175E1,-2.553800380E0,4.484220328E0,-2.861402807E0,5.900657112E0
1.341569975E1,-2.722894548E0,4.427355571E0,-3.141884387E0,6.073472612E0
1.342577775E1,-3.114050763E0,4.412908271E0,-3.125736716E0,6.240296594E0
1.343585475E1,-3.202223851E0,4.232822800E0,-2.936213254E0,6.065671828E0
1.344593275E1,-2.879002342E0,4.003034826E0,-2.672448279E0,5.608468784E0
1.345601075E1,-2.490679395E0,3.784694531E0,-2.377508436E0,5.116633943E0
1.346609162E1,-2.188543237E0,3.479212596E0,-2.204787971E0,4.664303998E0
1.347616963E1,-1.888207729E0,3.098185805E0,-2.062286210E0,4.173380898E0
1.348624762E1,-1.553697293E0,2.675843173E0,-1.943087649E0,3.653724343E0
1.349632462E1,-1.191829488E0,2.134114430E0,-1.829081562E0,3.052939778E0
1.350640263E1,-8.359088865E-1,1.512078273E0,-1.745723509E0,2.456150431E0
1.351648062E1,-4.794801620E-1,8.593372178E-1,-1.617565260E0,1.893377683E0
1.352655862E1,-1.204786626E-1,2.476424468E-1,-1.410786957E0,1.437414946E0
1.353663563E1,2.138326764E-1,-3.161992961E-1,-1.050098535E0,1.117324189E0
1.354671362E1,6.101598769E-1,-8.948953056E-1,-5.316522360E-1,1.206559896E0
1.355679162E1,1.265550013E0,-1.783146420E0,9.555312243E-1,2.386266522E0
1.356686862E1,1.940626556E0,-2.814943171E0,4.388866274E0,5.563459684E0
1.357694662E1,2.360462487E0,-3.523773057E0,7.494498509E0,8.611403347E0
1.358702462E1,2.728594998E0,-3.284787413E0,6.468275909E0,7.750719466E0
1.359710162E1,2.940918801E0,-2.600785389E0,3.960802726E0,5.576831203E0
1.360717962E1,3.069971820E0,-1.871493171E0,2.323103456E0,4.280656881E0
1.361725762E1,3.086768824E0,-1.454974950E0,1.814303893E0,3.864814678E0
1.362733563E1,2.813046919E0,-1.133444163E0,1.122226864E0,3.233778250E0
1.363741262E1,2.971600895E0,-1.566279039E0,1.050233898E0,3.519464895E0
1.364749062E1,3.907367654E0,-2.033186225E0,1.218398651E0,4.570105412E0
1.365756862E1,5.848269321E0,-1.525076634E0,1.974017665E0,6.358054618E0
1.366764562E1,6.478316163E0,-1.804029166E0,2.624519530E0,7.218809064E0
1.367772362E1,6.781061600E0,-2.581293111E0,2.866460356E0,7.801439965E0
1.368780162E1,7.478333296E0,-1.425414351E0,4.028426945E0,8.613100406E0
1.369787862E1,8.464615905E0,1.324663317E0,4.728235162E0,9.785737738E0
1.370795662E1,8.728874384E0,2.890870435E0,3.893403333E0,9.985437867E0
1.371803462E1,5.871521943E0,2.133550758E0,1.327678142E0,6.386668773E0
1.372811162E1,2.430927283E0,-1.339608800E-1,4.669981107E-1,2.478999840E0
1.373818962E1,1.627600836E0,-1.115799605E0,1.038752013E0,2.230044615E0
1.374826762E1,6.023003420E-1,-1.253688059E0,1.232087568E0,1.858100973E0
1.375834462E1,-3.796942109E-1,-1.719049242E0,1.053350757E0,2.051547174E0
1.376842262E1,-1.017646489E0,-2.268157171E0,1.083289670E0,2.711762865E0
1.377850062E1,-1.573734823E0,-2.236491575E0,1.505926125E0,3.121914373E0
1.378857862E1,-1.633933663E0,-2.054882904E0,1.081820557E0,2.839475071E0
1.379865562E1,-1.673340680E0,-1.693596897E0,8.153930533E-1,2.516586043E0
1.380873362E1,-1.730615619E0,-2.332018121E0,1.262549222E0,3.166602198E0
1.381881162E1,-1.667353131E0,-2.135641723E0,1.091224634E0,2.920925065E0
1.382888862E1,-1.492060331E0,-1.516708099E0,1.058782235E0,2.376482129E0
1.383896662E1,-1.623232966E0,-4.555349368E-1,6.769540831E-1,1.816773010E0
1.384904462E1,-1.857499030E0,7.982490170E-1,-1.630224189E-1,2.028319612E0
1.385912162E1,-2.130861039E0,1.772586349E0,-8.554511583E-1,2.900763316E0
1.386919962E1,-2.447228735E0,2.386193744E0,-1.323959897E0,3.665476623E0
1.387927763E1,-2.842756621E0,2.705312555E0,-1.407073390E0,4.168913138E0
1.388935462E1,-3.479694992E0,2.800645559E0,-1.165708514E0,4.616358860E0
1.389943262E1,-4.047427472E0,3.151559190E0,-7.947746015E-1,5.190921029E0
1.390951063E1,-4.492001511E0,3.361895816E0,-5.733308968E-1,5.639958277E0
1.391958862E1,-4.689660496E0,3.528353181E0,-7.910619119E-1,5.921821569E0
1.392966562E1,-4.809072042E0,3.679325366E0,-1.123628149E0,6.158502194E0
1.393974363E1,-4.777992629E0,3.631983384E0,-1.455217902E0,6.175611387E0
1.394982162E1,-4.615311103E0,3.451899667E0,-1.769432068E0,6.028896892E0
1.395989862E1,-4.302910158E0,3.283115110E0,-1.720085953E0,5.679135175E0
1.396997662E1,-3.095002581E0,3.467742698E0,-1.042056860E0,4.763419244E0
1.398005462E1,-2.555798666E0,3.360632232E0,-8.585221159E-1,4.308481873E0
1.399013162E1,-2.111460855E0,3.173093315E0,-9.022104648E-1,3.916729739E0
1.400020962E1,-1.580052448E0,2.820696246E0,-6.278634918E-1,3.293494438E0
1.401028762E1,-1.072487817E0,2.350447960E0,-2.656930938E-1,2.597196287E0
1.402036462E1,-5.764138412E-1,1.838025463E0,2.732813179E-2,1.926483154E0
1.403044262E1,-1.137476403E-1,1.310476803E0,3.317979133E-1,1.356605260E0
1.404052062E1,2.848149508E-1,7.479805040E-1,5.660142758E-1,9.802890141E-1
1.405059762E1,6.632900172E-1,2.831841624E-1,7.293711555E-1,1.025733493E0
1.406067562E1,9.601093018E-1,-8.598915339E-2,8.740961748E-1,1.301248681E0
1.407075362E1,1.230766974E0,-5.400716418E-1,9.613009644E-1,1.652441910E0
1.408083162E1,1.625794631E0,-1.076861241E0,1.015003255E0,2.198424418E0
1.409090862E1,2.674995619E0,-1.331912110E0,1.227009846E0,3.230347441E0
1.410098662E1,3.810348020E0,-1.417505407E0,1.734308428E0,4.419943364E0
1.411106462E1,4.260419026E0,-1.786851216E0,1.662354054E0,4.909931624E0
1.412114162E1,4.400567138E0,-2.006227638E0,1.280327097E0,5.002916943E0
1.413121962E1,4.779434552E0,-1.479113426E0,1.146370602E0,5.132731897E0
1.414129762E1,5.151054928E0,-6.017796475E-1,8.921748886E-1,5.262269629E0
1.415137462E1,5.932691420E0,-2.985553229E-1,5.112194332E-1,5.962156328E0
1.416145263E1,7.523615304E0,-7.780211592E-1,3.178207290E-1,7.570410436E0
1.417153062E1,8.792360528E0,-2.580280373E0,7.118300933E-1,9.190764524E0
1.418160762E1,8.601645988E0,-4.478003569E0,1.236452222E0,9.775972778E0
1.419168563E1,6.554736933E0,-5.323976390E0,1.198103258E0,8.529053422E0
1.420176362E1,4.750276534E0,-4.870996102E0,7.960972416E-1,6.850219047E0
1.421184162E1,3.318997718E0,-3.384125175E0,5.609555572E-1,4.773124783E0
1.422191863E1,1.945194693E0,-1.877870729E0,3.260805058E-1,2.723326893E0
1.423199662E1,7.516698048E-1,-1.004130065E0,3.764323416E-1,1.309574736E0
1.424207462E1,-7.065307617E-2,-6.109779024E-1,6.186330771E-1,8.723489775E-1
1.425215162E1,-9.855119455E-1,-8.605230331E-1,8.138587439E-1,1.540811390E0
1.426222962E1,-1.811203115E0,-1.518265212E0,1.376890647E0,2.735217328E0
1.427230762E1,-1.375318623E0,-2.043496621E0,1.293734762E0,2.782288517E0
1.428238462E1,-1.083616822E0,-3.035772040E0,7.504956838E-1,3.309589260E0
1.429246262E1,-4.781870502E-1,-3.273539709E0,-2.713894513E-1,3.319394119E0
1.430254062E1,-1.960676658E-1,-2.755665852E0,-9.721852639E-1,2.928699542E0
1.431261863E1,-5.614470157E-1,-2.367399623E0,-1.438175899E0,2.826332190E0
1.432269562E1,-1.685187724E0,-2.346546698E0,-1.220558613E0,3.136224226E0
1.433277362E1,-2.995068988E0,-1.863695324E0,-1.015499099E0,3.670835998E0
1.434285162E1,-4.589928632E0,-1.231918291E0,-1.212485362E0,4.904608881E0
1.435292862E1,-5.786896361E0,-1.060735205E0,-1.556596050E0,6.085747277E0
1.436300662E1,-6.431613867E0,-9.276864910E-1,-2.074982854E0,6.821423092E0
1.437308462E1,-7.117672942E0,-7.099244857E-1,-2.485715693E0,7.572584987E0
1.438316162E1,-7.110188506E0,4.330880606E-1,-2.839029021E0,7.668274359E0
1.439323962E1,-5.382274300E0,2.368588947E0,-3.218862981E0,6.703742919E0
1.440331762E1,-3.848529169E0,3.451955801E0,-3.313858016E0,6.140751628E0
1.441339462E1,-3.162705737E0,4.027249315E0,-3.220369516E0,6.049150721E0
1.442347262E1,-2.759751302E0,4.218678970E0,-2.960778284E0,5.846339671E0
1.443355062E1,-2.428899761E0,4.109124368E0,-2.706617653E0,5.487279493E0
1.444362862E1,-2.257662004E0,4.093851441E0,-2.502805935E0,5.302894954E0
1.445370562E1,-2.157028791E0,4.336120296E0,-2.362414287E0,5.388479720E0
1.446377904E1,-2.108827561E0,4.493283513E0,-2.336043929E0,5.485786329E0
1.447385704E1,-1.974543038E0,4.412669120E0,-2.337959039E0,5.369964752E0
1.448393404E1,-1.874213588E0,4.245742807E0,-2.303494234E0,5.181225168E0
1.449401204E1,-1.766105295E0,3.992864764E0,-2.313309370E0,4.941001637E0
1.450409004E1,-1.638647980E0,3.618797913E0,-2.164218235E0,4.523793332E0
1.451416704E1,-1.498823805E0,3.140097477E0,-2.005633560E0,4.016123871E0
1.452424504E1,-1.383847665E0,2.633670714E0,-1.819288937E0,3.487272290E0
1.453432304E1,-1.250483493E0,2.130487987E0,-1.643716055E0,2.967236171E0
1.454440004E1,-1.089377791E0,1.599117587E0,-1.400739101E0,2.388721637E0
1.455447804E1,-8.933218199E-1,1.067948915E0,-1.041069265E0,1.738494744E0
1.456455604E1,-5.399880266E-1,6.172665828E-1,-4.165872180E-1,9.198641277E-1
1.457463404E1,-3.128084958E-2,1.049119127E-1,3.597797638E-1,3.760671209E-1
1.458471104E1,4.592078653E-1,-4.978214157E-1,1.079649486E0,1.274496386E0
1.459478904E1,9.412938389E-1,-1.091803801E0,1.759167573E0,2.274365886E0
1.460486704E1,1.305276874E0,-1.646872966E0,1.947806937E0,2.865290587E0
1.461494404E1,1.518329239E0,-2.047072778E0,2.206738310E0,3.371279372E0
1.462502204E1,1.739154016E0,-2.395491986E0,2.702600031E0,4.008376913E0
1.463510004E1,1.989229489E0,-2.581962617E0,2.618046662E0,4.180637899E0
1.464517704E1,2.140177700E0,-2.401743829E0,2.103154593E0,3.843435085E0
1.465525504E1,2.164003935E0,-2.106173510E0,1.695144947E0,3.463003938E0
1.466533304E1,2.283329819E0,-2.017813311E0,1.170026390E0,3.264066079E0
1.467541004E1,2.620052549E0,-2.895576274E0,1.338623837E0,4.128068689E0
1.468548804E1,3.131069961E0,-4.503845923E0,1.592580400E0,5.711789521E0
1.469556604E1,3.925755977E0,-5.320355794E0,8.149194288E-1,6.661969637E0
1.470564404E1,5.532631942E0,-4.997822794E0,6.477542576E-1,7.483838218E0
1.471572104E1,6.075637132E0,-4.004701867E0,1.792537341E0,7.494277398E0
1.472579904E1,5.305950594E0,-2.441349360E0,2.359371689E0,6.299200994E0
1.473587704E1,5.038974913E0,-3.629296589E-1,1.903993457E0,5.398905185E0
1.474595404E1,5.732884460E0,1.710980669E0,2.008692824E0,6.310963947E0
1.475603204E1,6.217054966E0,2.491798552E0,1.644456897E0,6.896743504E0
1.476611004E1,2.980225831E0,1.055152869E0,-3.683088049E-1,3.182883120E0
1.477618704E1,6.343688115E-1,-6.598261267E-1,-5.212140790E-1,1.053308323E0
1.478626504E1,-1.932180253E-1,-1.285932530E0,1.300869535E0,1.839352393E0
1.479634304E1,-1.080363431E0,-1.677314740E0,2.765783874E0,3.410297688E0
1.480642104E1,-1.463268641E0,-1.845299399E0,3.115757858E0,3.905666654E0
1.481649804E1,-1.553123096E0,-1.770638641E0,3.148998109E0,3.932370995E0
1.482657604E1,-1.699584154E0,-1.723905355E0,2.868768837E0,3.753700922E0
1.483665404E1,-1.527418736E0,-1.320790706E0,1.915251979E0,2.783107297E0
1.484673104E1,-1.533889557E0,-1.216500353E0,1.798264104E0,2.658278403E0
1.485680904E1,-1.655913931E0,-8.582022732E-1,1.418975397E0,2.343513018E0
1.486688704E1,-1.848605999E0,-2.005922413E-1,6.487105697E-1,1.969367104E0
1.487696404E1,-2.108048420E0,4.022018981E-1,1.610820204E-2,2.146134660E0
1.488704204E1,-2.388041756E0,1.066911035E0,-3.875537458E-1,2.644095401E0
1.489712004E1,-2.649796751E0,1.676031277E0,-7.216463989E-1,3.217340079E0
1.490719804E1,-2.887062144E0,2.134860535E0,-8.388883352E-1,3.687341992E0
1.491727504E1,-3.119351264E0,2.632890111E0,-9.331942758E-1,4.187280048E0
1.492735304E1,-3.314815497E0,3.068005401E0,-1.053466239E0,4.637935968E0
1.493743104E1,-3.424441143E0,3.334677612E0,-1.178315403E0,4.922936025E0
1.494750804E1,-3.451552635E0,3.463419852E0,-1.281348605E0,5.054735098E0
1.495758604E1,-3.451464342E0,3.430863724E0,-1.226317535E0,5.018693724E0
1.496766404E1,-3.382166943E0,3.241936094E0,-1.133037489E0,4.820059835E0
1.497774104E1,-3.279180518E0,2.889329109E0,-9.952232936E-1,4.482378496E0
1.498781904E1,-3.176481484E0,2.565507383E0,-9.663883343E-1,4.195922922E0
1.499789704E1,-3.059439523E0,2.285219931E0,-1.101510471E0,3.974383681E0
1.500797504E1,-2.968502163E0,2.095521637E0,-1.171573271E0,3.817826601E0
1.501805204E1,-2.672008861E0,2.073314497E0,-1.134712131E0,3.567328970E0
1.502813004E1,-1.604625079E0,2.469412487E0,-9.387330508E-1,3.090960921E0
1.503820804E1,-1.396061913E0,2.420195303E0,-1.103751124E0,3.004097321E0
1.504828504E1,-1.109896548E0,2.234186018E0,-1.077473445E0,2.717426454E0
1.505836304E1,-7.641144338E-1,1.939424368E0,-8.645918182E-1,2.256713708E0
1.506844104E1,-3.364791942E-1,1.528506610E0,-6.432042468E-1,1.692117729E0
1.507851804E1,1.712096903E-1,1.134223596E0,-4.595689309E-1,1.235710131E0
1.508859604E1,6.686244321E-1,7.840601635E-1,-2.933314204E-1,1.071378688E0
1.509867404E1,1.092377413E0,4.985330218E-1,-1.535516837E-1,1.210537775E0
1.510875104E1,1.530742586E0,1.500290287E-1,-6.046020985E-3,1.538089116E0
1.511882904E1,2.256383218E0,-3.104859817E-1,2.608647555E-1,2.292535101E0
1.512890704E1,2.929044275E0,-7.037088954E-1,5.566373885E-1,3.063388933E0
1.513898504E1,3.774097037E0,-8.538531142E-1,6.019240737E-1,3.916016621E0
1.514906204E1,4.530591672E0,-1.235938836E0,5.332993966E-1,4.726331977E0
1.515914004E1,5.244353685E0,-1.300839422E0,6.133775997E-1,5.437983161E0
1.516921804E1,6.281894156E0,-9.315462381E-1,5.991212109E-1,6.378786625E0
1.517929504E1,6.514917394E0,-5.758367211E-1,2.034293103E-1,6.543479202E0
1.518937304E1,6.292992171E0,-9.595783746E-1,1.098107100E-2,6.365741253E0
1.519945104E1,6.001744114E0,-2.674295999E0,7.706735480E-1,6.615642767E0
1.520952804E1,6.374916925E0,-4.457382778E0,1.553902237E0,7.932366557E0
1.521960604E1,6.495150297E0,-5.827379558E0,1.898192142E0,8.930199511E0
1.522968404E1,6.233380977E0,-6.223363527E0,1.969325275E0,9.025715153E0
1.523976204E1,5.071993555E0,-5.432166837E0,1.969161553E0,7.688377748E0
1.524983904E1,3.372015592E0,-3.893714697E0,2.035243276E0,5.538385910E0
1.525991704E1,1.765806502E0,-2.317968432E0,1.929198465E0,3.494689825E0
1.526999504E1,5.235243139E-1,-1.222227700E0,1.532441202E0,2.028865273E0
1.528007204E1,-4.150403371E-1,-5.988870299E-1,1.508079655E0,1.674881608E0
1.529015004E1,-1.271028270E0,-6.639144999E-1,1.550807014E0,2.112178430E0
1.530022804E1,-2.106856757E0,-1.219108211E0,1.953376994E0,3.121017768E0
1.531030504E1,-1.984469856E0,-1.828785692E0,1.703554121E0,3.191343660E0
1.532038304E1,-1.478761131E0,-2.367385590E0,7.551576689E-1,2.891627936E0
1.533046104E1,-1.333276851E0,-2.411623285E0,-3.883562762E-1,2.782871651E0
1.534053904E1,-9.847623324E-1,-1.910058482E0,-1.123968165E0,2.425156632E0
1.535061604E1,-1.268041804E0,-1.456342029E0,-1.425838859E0,2.400391338E0
1.536069404E1,-2.240715896E0,-1.457530768E0,-1.242608171E0,2.947758255E0
1.537077204E1,-3.217403223E0,-1.503930763E0,-8.796369964E-1,3.658859452E0
1.538084904E1,-4.065606758E0,-1.645124649E0,-1.000887784E0,4.498596423E0
1.539092704E1,-5.139955158E0,-1.057211089E0,-1.709139089E0,5.518875858E0
1.540100504E1,-5.837549036E0,-2.443007630E-1,-1.815801658E0,6.118316539E0
1.541108304E1,-5.874285922E0,5.040826142E-1,-1.787631527E0,6.160922078E0
1.542116004E1,-5.725980653E0,1.613582429E0,-2.018633090E0,6.282147900E0
1.543123804E1,-5.221199296E0,3.196328981E0,-2.170455168E0,6.495253396E0
1.544131604E1,-4.307940517E0,4.482353897E0,-2.090732768E0,6.559040438E0
1.545139304E1,-3.615939502E0,4.738227469E0,-2.333100003E0,6.400716652E0
1.546147104E1,-3.192816851E0,4.705286595E0,-2.805324793E0,6.340634714E0
1.547154962E1,-2.804096293E0,4.563248956E0,-2.967895807E0,6.123283644E0
1.548162662E1,-2.373538907E0,3.754848003E0,-2.983030740E0,5.350798339E0
1.549170462E1,-2.076157413E0,3.197811835E0,-2.704595394E0,4.674533814E0
1.550178262E1,-2.063627999E0,3.697491496E0,-1.938038870E0,4.656822795E0
1.551186063E1,-1.742792738E0,3.496011062E0,-1.402186579E0,4.150367102E0
1.552193762E1,-1.231570674E0,3.052010928E0,-7.143449807E-1,3.367762726E0
1.553201562E1,-7.622418630E-1,3.139062520E0,7.453483799E-1,3.315157669E0
1.554209363E1,-3.009971201E-1,3.288729022E0,1.604817452E0,3.671753927E0
1.555217062E1,1.661544800E-2,3.067204918E0,1.663275576E0,3.489198722E0
1.556224862E1,-3.155391455E-2,2.594741707E0,6.323176083E-1,2.670862357E0
1.557232662E1,-1.658121255E-1,2.238601835E0,-5.391273165E-1,2.308568842E0
1.558240362E1,-1.948599234E-1,1.813314545E0,-1.247102340E0,2.209376445E0
1.559248162E1,-4.077438891E-2,1.320885431E0,-1.222858907E0,1.800495704E0
1.560255962E1,2.348025459E-1,7.327578628E-1,-7.670561680E-1,1.086481241E0
1.561263662E1,5.299854872E-1,-1.844094872E-2,-4.351489118E-1,6.859877992E-1
1.562271462E1,8.650134024E-1,-7.767107981E-1,-7.079311699E-2,1.164705764E0
1.563279262E1,1.328824196E0,-1.545200411E0,7.334940273E-1,2.165971270E0
1.564287062E1,1.932179960E0,-2.398871092E0,1.184079881E0,3.299991982E0
1.565294762E1,2.603546737E0,-3.077228799E0,1.429971379E0,4.276986186E0
1.566302562E1,3.249579574E0,-3.285463936E0,1.374965744E0,4.821262436E0
1.567310362E1,3.382576248E0,-3.050530998E0,8.018935865E-1,4.624996731E0
1.568318062E1,3.294615121E0,-2.657638451E0,1.688433221E-1,4.236276549E0
1.569325862E1,3.404025005E0,-2.397475362E0,6.611271322E-2,4.164089965E0
1.570333662E1,3.822938537E0,-2.764898021E0,-1.039056069E-1,4.719143620E0
1.571341362E1,4.559891777E0,-3.707521809E0,-4.771798673E-1,5.896272688E0
1.572349162E1,5.223842822E0,-4.563290471E0,-9.633281940E-1,7.002867625E0
1.573356962E1,5.487718894E0,-4.594718671E0,-1.666545631E0,7.348732725E0
1.574364762E1,4.930487428E0,-3.708424619E0,-2.165761608E0,6.538550511E0
1.575372462E1,3.027028699E0,-2.541100520E0,-2.766746034E0,4.824414805E0
1.576380263E1,2.983810759E-1,-1.877721040E0,-3.339316208E0,3.842642360E0
1.577388062E1,-1.009949799E0,-1.864663038E0,-2.875894839E0,3.573197163E0
1.578395762E1,-1.054884481E0,-2.265565685E0,-1.005627244E0,2.693855099E0
1.579403563E1,-8.737009031E-1,-2.935161924E0,1.955373234E0,3.633457482E0
1.580411362E1,-1.440556593E0,-2.961208346E0,4.523160153E0,5.594902675E0
1.581419062E1,-2.381690511E0,-2.078436073E0,4.851132818E0,5.790149896E0
1.582426863E1,-3.051414512E0,-8.968588006E-1,3.039622432E0,4.399408001E0
1.583434662E1,-3.297247538E0,-3.284831268E-1,1.935713433E0,3.837542050E0
1.584442362E1,-3.388147475E0,-3.819114751E-1,2.358522088E0,4.145844441E0
1.585450162E1,-2.641778171E0,-5.384952325E-1,3.582786374E0,4.483896433E0
1.586457962E1,-1.221259109E0,-4.494602644E-1,4.223282483E0,4.419231072E0
1.587465762E1,-4.053298661E-1,-6.127478546E-1,3.928727825E0,3.996830564E0
1.588473462E1,1.773975062E-1,-2.612886786E-1,3.716625924E0,3.730020095E0
1.589481262E1,2.182704207E-1,4.621510613E-1,3.167575590E0,3.208544951E0
1.590489062E1,-3.212588918E-1,1.107425222E0,2.339850467E0,2.608543292E0
1.591496762E1,-7.632481688E-1,1.663191960E0,1.413621979E0,2.312375913E0
1.592504562E1,-1.105124051E0,2.162640656E0,6.362703261E-1,2.510608234E0
1.593512362E1,-1.310425932E0,2.480898757E0,2.346323919E-1,2.815515428E0
1.594520062E1,-1.405035051E0,2.673310744E0,-2.343259978E-1,3.029129000E0
1.595527862E1,-1.507513937E0,2.668299680E0,-7.041310644E-1,3.144554341E0
1.596535662E1,-1.464695361E0,2.687855108E0,-1.039372403E0,3.232675761E0
1.597543462E1,-1.592005033E0,2.727861173E0,-1.221990888E0,3.386586531E0
1.598551162E1,-1.577863835E0,2.951778542E0,-1.226825074E0,3.564793206E0
1.599558962E1,-1.494438978E0,3.105551543E0,-1.076181503E0,3.610535261E0
1.600566762E1,-1.460158214E0,3.295515885E0,-8.821966150E-1,3.710897173E0
1.601574462E1,-1.367414065E0,3.505318075E0,-8.094990599E-1,3.848683510E0
1.602582262E1,-1.239223217E0,3.596969088E0,-7.045377383E-1,3.869138693E0
1.603590062E1,-1.071736157E0,3.613923090E0,-5.716857827E-1,3.812595326E0
1.604597762E1,-9.182473308E-1,3.533412777E0,-5.965107214E-1,3.699190324E0
1.605605562E1,-6.829316917E-1,3.505160201E0,-7.598790032E-1,3.651021751E0
1.606613362E1,-5.367992476E-1,3.368295009E0,-9.197649756E-1,3.532638151E0
1.607621063E1,-4.451882887E-1,3.139228581E0,-9.807631293E-1,3.318862006E0
1.608628862E1,-3.528744945E-1,2.709246562E0,-1.004384419E0,2.910897697E0
1.609636662E1,-1.808532107E-1,2.263501033E0,-1.029641174E0,2.493252045E0
1.610644462E1,4.722357541E-2,1.811453376E0,-1.077798842E0,2.108374669E0
1.611652162E1,2.225704631E-1,1.489315063E0,-1.302680710E0,1.991123803E0
1.612659962E1,4.041057515E-1,1.120670920E0,-1.320395727E0,1.778383998E0
1.613667762E1,5.509527254E-1,6.608745325E-1,-1.159989937E0,1.444257840E0
1.614675462E1,6.607885784E-1,1.715298253E-1,-1.028900625E0,1.234787642E0
1.615683262E1,9.679089028E-1,-4.103809834E-1,-8.315202588E-1,1.340405213E0
1.616691063E1,1.258040727E0,-1.004419502E0,-6.331294942E-1,1.729849116E0
1.617698762E1,1.669858371E0,-1.490130749E0,-4.153739208E-1,2.276280326E0
1.618706562E1,2.080106623E0,-1.921350625E0,-1.441095999E-1,2.835348190E0
1.619714363E1,2.735300293E0,-2.192740953E0,1.969155121E-1,3.511232874E0
1.620722062E1,3.442861919E0,-2.336240981E0,6.200548276E-1,4.206636198E0
1.621729862E1,3.962936668E0,-2.410042198E0,9.945803922E-1,4.743665311E0
1.622737663E1,4.282319480E0,-2.585928783E0,1.096238037E0,5.121232824E0
1.623745462E1,4.526690117E0,-2.916371312E0,1.087204674E0,5.493465122E0
1.624753162E1,4.409078052E0,-3.722533951E0,1.080149716E0,5.870600625E0
1.625760962E1,3.934838750E0,-4.751339850E0,1.272765770E0,6.299056998E0
1.626768762E1,3.756698940E0,-4.966976393E0,1.687959597E0,6.452352207E0
1.627776462E1,3.600566587E0,-4.506115812E0,2.363657990E0,6.233461202E0
1.628784262E1,2.906269370E0,-3.735618265E0,3.368619821E0,5.809375610E0
1.629792062E1,1.675224946E0,-2.835213713E0,3.908975638E0,5.111252875E0
1.630799762E1,2.185177580E-1,-2.082620341E0,3.263414086E0,3.877490038E0
1.631807562E1,-9.259367117E-1,-1.618159044E0,2.143128205E0,2.840562619E0
1.632815362E1,-1.634990547E0,-1.131513997E0,1.367599129E0,2.413264468E0
1.633823162E1,-1.750933524E0,-7.071827263E-1,9.460338843E-1,2.112073797E0
1.634830862E1,-1.848187046E0,-9.899289322E-1,7.009683055E-1,2.210681165E0
1.635838662E1,-1.992783135E0,-1.495801379E0,8.788599014E-1,2.642158419E0
1.636846462E1,-2.382845044E0,-1.501666721E0,9.426381138E-1,2.970104385E0
1.637854162E1,-2.960985568E0,-1.691139897E0,6.605225301E-1,3.473280826E0
1.638861962E1,-3.060630308E0,-1.981855273E0,1.988465551E-1,3.651677445E0
1.639869762E1,-2.861893973E0,-2.081331614E0,-9.449100494E-2,3.539958609E0
1.640877462E1,-2.768874713E0,-1.973818275E0,-3.301256096E-1,3.416373615E0
1.641885262E1,-2.863355485E0,-1.817256737E0,-5.635113752E-1,3.437844056E0
1.642893062E1,-2.844437696E0,-1.270471907E0,-8.926222005E-1,3.240632510E0
1.643900762E1,-2.148964896E0,-2.823129272E-1,-1.175610774E0,2.465727358E0
1.644908563E1,-1.064959526E0,5.749151999E-1,-1.299557127E0,1.775813900E0
1.645916362E1,-8.551742926E-1,1.113285887E0,-1.440396087E0,2.011335234E0
1.646924029E1,-9.454938939E-1,1.550185162E0,-1.541392997E0,2.381790316E0
1.647931829E1,-1.122864503E0,2.044714596E0,-1.669864511E0,2.868820307E0
1.648939629E1,-1.312585601E0,2.479175583E0,-1.700351308E0,3.280302898E0
1.649947429E1,-1.544249361E0,2.853464627E0,-1.770921062E0,3.696366848E0
1.650955129E1,-1.634334782E0,2.928311327E0,-1.904445739E0,3.856549102E0
1.651962929E1,-1.587024083E0,2.816981510E0,-2.042027800E0,3.824121834E0
1.652970729E1,-1.462343319E0,2.780852734E0,-2.105241171E0,3.782014053E0
1.653978429E1,-1.316968381E0,2.736247834E0,-2.245303913E0,3.776618539E0
1.654986229E1,-9.555139750E-1,2.661138595E0,-2.593009762E0,3.836452163E0
1.655994029E1,-5.733478537E-1,2.884481767E0,-2.546548955E0,3.890228067E0
1.657001729E1,-5.343776232E-1,3.032791130E0,-2.262420760E0,3.821247071E0
1.658009529E1,-6.673830682E-1,3.181005183E0,-2.036703326E0,3.835668725E0
1.659017329E1,-7.205681723E-1,3.462782505E0,-1.892111623E0,4.011255111E0
1.660025029E1,-1.116702415E0,3.493190950E0,-1.847738857E0,4.106524830E0
1.661032829E1,-1.718146724E0,2.622112523E0,-1.758898602E0,3.594610764E0
1.662040629E1,-1.606225462E0,1.939834843E0,-1.575246329E0,2.970575777E0
1.663048329E1,-1.152285646E0,1.367263207E0,-1.479342344E0,2.320694865E0
