Time (s),Linear Acceleration x (m/s^2),Linear Acceleration y (m/s^2),Linear Acceleration z (m/s^2),Absolute acceleration (m/s^2)
0.009729833,-0.161430514,-0.024899783,-0.201584514,0.259453515
0.019809833,-0.250184231,-0.088155254,-0.14504837,0.302328511
0.029890833,-0.102273064,-0.033690487,-0.260174784,0.281577248
0.039970833,-0.091515942,0.025744121,-0.238321985,0.256583896
0.050050833,-0.339986939,0.022148522,0.068477327,0.347520963
0.060131833,-0.311526786,0.03174278,-0.007873276,0.313238776
0.070211833,-0.067596737,0.028940209,0.207088498,0.219755547
0.080291833,0.162032193,-0.040936942,-0.165268042,0.235039976
0.090372833,0.215988545,-0.18085438,-0.886158981,0.929858644
0.100452833,0.224566995,-0.096237568,-0.863932545,0.897814817
0.110533833,0.304580294,0.016526863,-0.266050651,0.40475331
0.120613833,0.482138599,0.030730773,-0.229752306,0.534965542
0.130693833,0.680466798,0.167610875,-0.191541921,0.726509997
0.140774833,0.488783959,0.259160292,0.51977888,0.759107304
0.150854833,0.104735911,0.197597151,0.207659186,0.305182868
0.160934833,0.030117254,0.203089002,-0.026592552,0.207025012
0.171015833,0.03632992,0.263185515,0.028685271,0.26722523
0.181095833,0.084264809,0.250344007,-0.154937181,0.306232281
0.191175833,0.364024258,0.102587791,-0.243901398,0.450028674
0.201256833,0.589409863,0.013896785,-0.089726109,0.596362207
0.211336833,0.436832618,0.466896808,-0.845272325,1.059858797
0.221417833,0.120018779,0.047437437,-0.805203695,0.815480109
0.231497833,0.399358982,-0.164361139,-0.276092659,0.512571299
0.241577833,0.646873375,-0.054125044,-0.43772081,0.782926683
0.251658833,0.503479182,-0.20673708,-0.489680922,0.732133124
0.261738833,0.22261461,-0.365676096,-0.292853703,0.518690238
0.271818833,0.10197661,-0.398928919,-0.266593857,0.49052604
0.281899833,0.165370953,-0.397020388,-0.396587402,0.585025049
0.291979833,0.125608717,-0.520493117,-0.389380124,0.662047971
0.302059833,0.175602996,-0.552765508,-0.338796446,0.671691262
0.312140833,-0.194957864,-0.722714685,-1.012470533,1.259135285
0.322220833,-0.343162562,-0.870696896,-1.173461337,1.500961405
0.332301833,-0.106584801,-0.735090171,-0.922625141,1.184464027
0.342381833,-0.05600814,-0.770843702,-1.138176899,1.375784713
0.352461833,-0.205797433,-0.854113608,-1.336598069,1.599486491
0.362542833,-0.490803003,-0.709268867,-1.283972543,1.546782275
0.372622833,-0.709273106,-0.631778495,-1.108253188,1.459601841
0.382702833,-0.600969808,-0.777312477,-0.814897209,1.276493971
0.392783833,-0.405055924,-0.782112895,-0.616966036,1.07536876
0.402863833,-0.4145366,-0.667163067,-0.589749586,0.982217758
0.412943833,-0.619431807,-0.594141722,-0.61344075,1.05499275
0.423024833,-0.871512875,-0.64242759,-0.612417487,1.243906378
0.433104833,-0.976839355,-0.456590944,-0.463176663,1.173551463
0.443184833,-1.019036372,-0.278910871,-0.285292084,1.094357334
0.453265833,-0.992352603,-0.352361694,0.068977264,1.05531053
0.463345833,-0.73485292,-0.429796955,0.384119968,0.933960592
0.473426833,-0.756175377,0.022812473,0.378390867,0.845873074
0.483506833,-1.22607049,-0.106033555,-0.331912519,1.274620682
0.493586833,-1.834357504,-0.002445159,-0.202793133,1.845534743
0.503667833,-1.184440654,0.314649784,0.410053539,1.292303391
0.513747833,-0.934539428,0.453610326,-0.350494385,1.096345103
0.523824833,-1.334966111,0.542916312,-1.0159315,1.763238343
0.533905833,-0.918280075,0.372468076,-0.513375009,1.116030763
0.543985833,-0.002334208,0.050260912,0.066585753,0.083458195
0.554065833,0.964690011,-0.300135533,0.336426569,1.064843177
0.564146833,2.058193012,-0.700845514,0.854557704,2.336153201
0.574226833,2.932134236,-1.115514699,1.417518856,3.442549045
0.584307833,3.387078604,-1.563278248,2.048912312,4.256075894
0.594387833,3.57482919,-1.641285367,2.736103408,4.791605499
0.604467833,3.84485244,-1.697762307,3.233021721,5.302614127
0.614548833,4.145882889,-1.940217251,3.771279849,5.930880171
0.624628833,4.267989124,-2.02271357,4.310707712,6.394474359
0.634708833,4.482911137,-1.862529097,4.404417529,6.554723539
0.644789833,4.852424176,-1.671680656,4.074051014,6.552742041
0.654869833,5.082464749,-1.637328556,3.743868979,6.521414544
0.664949833,5.081070773,-1.50725052,3.37741608,6.2845862
0.675030833,4.889982011,-1.223243069,2.879533561,5.805166768
0.685110833,4.682678336,-0.834245646,2.291807112,5.279755869
0.695190833,4.004676139,-0.314708987,1.904962926,4.445824611
0.705271833,2.574410938,0.195142344,1.512028864,2.991973178
0.715351833,1.011687591,0.55347346,0.936625714,1.485635346
0.725432833,-0.317155316,0.924547998,0.348069545,1.037559108
0.735512833,-1.487204803,1.273498865,-0.297788461,1.980468493
0.745592833,-2.491107411,1.529949703,-1.181794496,3.153252362
0.755673833,-3.437114983,1.843570377,-2.01624041,4.390641927
0.765753833,-4.337618353,2.329848658,-2.771449534,5.650138075
0.775833833,-5.237807143,2.795120525,-3.5006672,6.892168981
0.785914833,-5.986985157,3.226282513,-4.264397179,8.027326667
0.795994833,-6.317804246,3.548672256,-4.7026457,8.638437466
0.806074833,-6.381552345,3.692535396,-4.733862815,8.761762673
0.816155833,-6.770506207,3.892420124,-5.403269312,9.496631402
0.826235833,-7.2075885,4.09625757,-5.916575325,10.18501456
0.836316833,-7.322979793,4.057515673,-5.512228668,10.02367853
0.846396833,-7.268642787,3.883489087,-4.925933032,9.601014097
0.856476833,-7.327987933,3.862925014,-4.833265189,9.590727251
0.866557833,-7.159126192,3.831934771,-4.577756775,9.321623733
0.876637833,-6.624376686,3.625535367,-3.879705938,8.489934708
0.886717833,-5.941257591,3.416883032,-3.0953195,7.520281526
0.896798833,-4.810662192,2.923996374,-2.109635062,6.011887026
0.906878833,-3.000288797,1.793066221,-0.52238323,3.534077472
0.916958833,-0.007240022,-0.018029597,1.555654648,1.55577597
0.927039833,4.056880081,-2.334774791,3.780610836,6.016848644
0.937119833,8.275973033,-4.610897332,5.800091772,11.10824777
0.947200833,11.22352696,-6.150020732,6.921419334,14.54978894
0.957280833,12.57601718,-7.010294673,7.324863181,16.15407255
0.967360833,13.3327381,-7.8569294,8.412396176,17.61424578
0.977441833,14.00322546,-8.438994575,10.13151032,19.23420011
0.987521833,14.32900424,-8.392757133,10.68599594,19.74713255
0.997601833,13.83180497,-7.538615166,9.925937423,18.61917778
1.007682833,12.65806648,-6.381103279,8.940289822,16.75929319
1.017762833,10.9836999,-5.299992281,7.688197467,14.41665572
1.027842833,8.761835724,-4.158008552,6.10243843,11.45855816
1.037923833,5.767783567,-2.448385022,4.121183373,7.499737921
1.048003833,2.045653074,-0.203626654,1.561117117,2.58132659
1.058083833,-1.013508414,1.998794072,-0.534944218,2.304027423
1.068164833,-2.956629392,3.201641761,-1.881267669,4.746718379
1.078244833,-5.893015139,4.036228884,-4.801764484,8.606724882
1.088324833,-8.492899472,4.846036677,-6.503285528,11.74334431
1.098405833,-10.1319243,5.409391347,-7.207207847,13.5595446
1.108485833,-9.860365577,5.506465067,-6.556868827,13.05911542
1.118566833,-9.552261166,5.48261369,-7.155787432,13.13430775
1.128646833,-9.793895599,5.446739852,-7.720350721,13.60849666
1.138726833,-9.819997569,5.369977021,-7.553357166,13.50267418
1.148807833,-9.315457118,5.26435818,-7.057177649,12.81775974
1.158887833,-8.813430385,5.290341452,-6.398232697,12.10791681
1.168967833,-8.598325939,5.367144629,-5.741110908,11.64894008
1.179048833,-8.501566799,5.431709,-5.085481328,11.29788569
1.189128833,-8.193253058,5.570407294,-4.297417283,10.79938093
1.199208833,-7.724772386,5.652598096,-3.741509043,10.27729846
1.209289833,-7.137387999,5.613804159,-3.325077945,9.670224812
1.219369833,-6.568558581,5.441946305,-2.845993055,8.992242095
1.229449833,-6.100018852,5.30408884,-2.54045908,8.47334177
1.239530833,-5.768819693,5.192103551,-2.394020827,8.122102909
1.249610833,-5.469921139,5.00612701,-2.331530756,7.772861801
1.259691833,-5.004122,4.794605446,-2.086494413,7.237605772
1.269771833,-3.976710661,4.320963728,-1.59518241,6.085192039
1.279851833,-1.857908919,3.108274591,-0.501500484,3.655776145
1.289932833,1.485607928,1.203020766,1.293351477,2.308039845
1.300012833,5.816575658,-1.308840459,3.469327001,6.897959522
1.310092833,10.32635709,-3.881120087,5.654491425,12.39637113
1.320173833,14.74682055,-6.208504583,7.255110576,17.56846251
1.330253833,18.74016011,-8.170915525,8.731640117,22.23058705
1.340333833,20.88014046,-9.122899536,10.18376455,24.95829766
1.350414833,21.7932744,-10.17793488,11.97257634,26.86782
1.360494833,21.86602312,-11.1342353,13.13126761,27.83027761
1.370574833,21.08693777,-10.49665023,12.87518295,26.84416038
1.380655833,19.6163373,-9.225814624,11.91879014,24.7381063
1.390735833,16.93203029,-8.021893387,10.20730193,21.33620013
1.400816833,12.96027631,-6.063306524,7.723948513,16.26013003
1.410896833,8.536374689,-3.218865027,4.44466713,10.14819446
1.420976833,4.238906828,-0.78977991,1.048310311,4.437458496
1.431057833,-0.153201728,1.419262788,-1.914082536,2.387779216
1.441137833,-3.442619551,3.250777961,-3.965742454,6.176269095
1.451217833,-5.802309621,4.325190096,-6.26983135,9.5752207
1.461298833,-8.514601412,5.201887697,-8.130984889,12.87132426
1.471378833,-10.70984322,5.690944721,-8.143651128,14.60844438
1.481458833,-10.64851645,5.366140662,-7.162940331,13.91021504
1.491539833,-10.30318223,5.181711295,-7.315735677,13.65744063
1.501619833,-10.36568195,5.079706618,-7.080746605,13.54207348
1.511699833,-10.29652226,4.768548791,-6.234932828,12.94727058
1.521780458,-10.11752261,4.501286597,-5.55304808,12.38798562
1.531860458,-9.857367125,4.231157805,-4.791530395,11.74858062
1.541940458,-9.359831638,4.098518103,-3.886493386,10.93202313
1.552021458,-8.95093994,3.96561937,-3.071986186,10.26072911
1.562101458,-8.54553026,3.954238057,-2.392893776,9.715350053
1.572182458,-8.093606563,3.998461719,-1.922493901,9.229850818
1.582262458,-7.697159495,4.019709038,-1.594102284,8.828674143
1.592342458,-7.333649207,4.068821265,-1.410357186,8.504517892
1.602423458,-7.184187943,4.127562393,-1.401089349,8.403117224
1.612503458,-7.181604059,4.188368758,-1.532297653,8.453745076
1.622583458,-7.262037188,4.252395769,-1.692853131,8.584043664
1.632664458,-7.371384214,4.23297015,-1.822374513,8.693468259
1.642744458,-7.325196472,4.131968855,-1.944023934,8.631969592
1.652824458,-7.004766131,4.015219839,-2.004635733,8.319092698
1.662905458,-6.683986126,3.838305605,-1.982215169,7.958482106
1.672985458,-6.544504305,3.521739688,-1.879580747,7.665899218
1.683065458,-5.823495253,3.023769169,-1.507240872,6.732611083
1.693146458,-4.210728511,2.178446411,-0.671707377,4.788220354
1.703226458,-1.55025299,0.684600341,0.549322229,1.781492877
1.713306458,2.312021813,-1.585688725,2.296239886,3.623888962
1.723387458,7.217645711,-4.888787425,4.993499948,10.04637715
1.733467458,12.02061706,-8.143791461,7.875806551,16.51801752
1.743547458,15.51425825,-9.707944452,9.186037186,20.47729654
1.753628458,17.99755436,-10.70182201,10.01851288,23.21231478
1.763708458,19.15062997,-11.66328202,11.68450039,25.28450761
1.773789458,20.33739723,-13.10012183,13.36225718,27.63644035
1.783869458,21.48540914,-13.69696818,14.14763999,29.1442183
1.793949458,22.17604249,-12.95959803,14.03566698,29.26991612
1.804030458,22.12566522,-11.98321242,13.17088834,28.40096374
1.814110458,20.61457162,-10.99756599,11.76846056,26.16111016
1.824190458,17.16439279,-8.964751064,9.858030199,21.72933273
1.834271458,12.23673483,-5.820883301,6.933741757,15.22160098
1.844351458,7.478001759,-2.544651826,3.42194672,8.608454134
1.854431458,3.733626704,0.112541652,0.16891115,3.739139602
1.864512458,0.742957746,1.684193405,-2.529367497,3.12828924
1.874592458,-2.861170673,3.308930567,-4.654286596,6.387307949
1.884672458,-6.048939915,4.820290802,-6.169439335,9.893778814
1.894753458,-7.969423397,5.650992451,-6.864710698,11.94025452
1.904833458,-9.207799938,6.169560957,-7.802591225,13.55461146
1.914913458,-9.813790165,6.421954266,-8.462764091,14.46272278
1.924994458,-9.788087559,6.291951367,-8.631750963,14.48801003
1.935074458,-9.869960858,6.063480771,-8.515551585,14.37694492
1.945154458,-10.12101925,5.719755122,-8.039084786,14.13426735
1.955235458,-10.15219192,5.322868928,-7.292794127,13.58619817
1.965315458,-10.14437186,4.918362057,-6.371823163,12.94985313
1.975396458,-9.875272468,4.510778967,-5.464348158,12.15430928
1.985476458,-9.350805876,4.286823883,-4.441569276,11.20455118
1.995556458,-8.935501537,4.101120699,-3.431616846,10.41337471
2.005637458,-8.654304258,3.899991099,-2.542004207,9.826937374
2.015717458,-8.334358651,3.768688948,-1.816184358,9.325399516
2.025797458,-8.094977735,3.77957734,-1.356952811,9.036326153
2.035878458,-8.134176884,3.853235885,-1.178843261,9.077550981
2.045958458,-8.19714555,3.896660817,-1.345913268,9.175436949
2.056038458,-8.278023652,3.946716491,-1.610880577,9.311132202
2.066119458,-8.379209719,3.937429943,-1.891177822,9.449394881
2.076199458,-8.316128202,3.962736985,-2.196301615,9.470217182
2.086279458,-8.262908599,4.066752812,-2.441678119,9.527640264
2.096360458,-8.271971199,4.206669666,-2.64260526,9.6490901
2.106440458,-8.287103208,4.263511619,-2.554639748,9.663322159
2.116520458,-8.2624455,4.188662581,-2.352230192,9.55750421
2.126601458,-8.05496173,4.164376463,-2.2161266,9.334648194
2.136681458,-7.55738005,4.12280656,-1.927482307,8.821945092
2.146761458,-6.880400532,3.850371334,-1.386757824,8.005521104
2.156842458,-6.164118953,3.502809328,-0.835543436,7.13891928
2.166922458,-4.792979043,2.808241384,-0.34940768,5.566053674
2.177002458,-2.337550757,1.575115059,0.350442345,2.840412087
2.187083458,1.204331127,-0.179418304,1.289247901,1.773348399
2.197163458,5.262724468,-2.703670364,2.818260296,6.553525262
2.207244458,9.683009001,-5.802896097,4.882836129,12.29944532
2.217324458,14.60905781,-8.94525937,7.487122246,18.69489863
2.227404458,18.70461137,-10.91146925,9.663617295,23.71303749
2.237485458,20.9884309,-12.02279339,11.35865144,26.72228948
2.247565458,23.03515284,-13.38961864,12.95271703,29.62554695
2.257645458,25.216749,-15.11239666,14.42034711,32.74469993
2.267726458,26.52681299,-14.90641445,14.79915547,33.83619366
2.277806458,26.56956549,-13.27762458,14.50743437,33.05605507
2.287886458,25.22422642,-12.52630532,13.99735602,31.44989506
2.297967458,23.15705091,-11.61712644,13.16974696,29.06284344
2.308047458,20.11352605,-9.176345426,11.1019306,24.73887849
2.318127458,16.04920831,-6.399473476,7.815563858,18.96347507
2.328208458,11.37349752,-4.122246689,4.291475635,12.83612584
2.338288458,6.36733484,-2.262766623,0.86524349,6.812614187
2.348368458,1.597500831,-0.420320958,-2.042296187,2.626718929
2.358449458,-2.524437125,1.130533419,-3.899538232,4.780929515
2.368529458,-6.080104989,2.113041357,-5.165412766,8.253127256
2.378609458,-8.099820399,2.840144085,-6.340079799,10.67099437
2.388690458,-9.192063326,3.469362962,-7.36559664,12.27935346
2.398770458,-10.06414806,3.853163672,-7.976842929,13.40760864
2.408850458,-10.82541811,4.060838353,-8.048390629,14.08746525
2.418931458,-11.24362969,3.978842264,-7.739025559,14.2176971
2.429011458,-11.70518784,3.755847,-7.206216744,14.24946907
2.439092458,-11.85392698,3.507672457,-6.497072861,13.96536095
2.449172458,-11.48947353,3.244497174,-5.525162124,13.15530997
2.459252458,-11.04341284,2.846173442,-4.649247757,12.31556637
2.469333458,-10.37471122,2.422869381,-3.976145528,11.37166049
2.479413458,-9.701530057,2.259680609,-3.300729555,10.49383903
2.489493458,-9.397612837,2.287080369,-2.775340564,10.06222534
2.499574458,-9.606760724,2.285589183,-2.398032309,10.16190575
2.509654458,-9.602636683,2.621305315,-2.025105081,10.15789956
2.519734208,-9.25631721,3.0764251,-1.846805349,9.927461391
2.529815208,-9.017149132,3.346470568,-1.989117807,9.821630893
2.539895208,-8.690268728,3.676409067,-2.095043627,9.66571063
2.549975208,-8.374170588,4.063038953,-2.179996946,9.559676002
2.560056208,-8.338246465,4.296195215,-2.436556105,9.691256528
2.570136208,-8.224575423,4.461702701,-2.734053959,9.748101504
2.580216208,-7.840674725,4.682286572,-2.945808535,9.595716524
2.590297208,-7.707500296,4.949462228,-3.34701319,9.752191264
2.600377208,-7.966797997,5.093085047,-3.627693575,10.12766243
2.610457208,-8.220045,5.116392049,-3.449085987,10.27826841
2.620538208,-8.221014469,5.016336833,-3.234485864,10.15926242
2.630618208,-7.932281883,4.744949428,-3.028215684,9.726547753
2.640698208,-7.77748562,4.424830744,-2.719681503,9.352276576
2.650779208,-7.995966833,4.104371166,-2.403390698,9.303635585
2.660859208,-7.991607149,3.809474739,-2.21652421,9.126382754
2.670939208,-7.600973382,3.269852163,-1.999999476,8.512739126
2.681020208,-6.889008803,2.571274492,-1.628351326,7.531362615
2.691100208,-5.578848335,2.013723768,-1.461164228,6.108488606
2.701180208,-4.508985626,1.563228839,-1.238738776,4.930426911
2.711261208,-3.355993052,1.112745896,-1.034918579,3.684012657
2.721341208,-1.548497656,0.320800178,-0.854086126,1.797281518
2.731421208,0.488096327,-0.668285878,-0.268128167,0.869906175
2.741502208,2.428552144,-1.597994629,0.474239887,2.94556545
2.751582208,4.708561621,-2.560067426,1.154933557,5.482551348
2.761663208,7.904259102,-3.842376436,2.649276056,9.179315457
2.771743208,11.29832571,-5.459341187,4.435321233,13.30896858
2.781823208,14.65108759,-6.629011774,5.429751937,16.97293053
2.791904208,17.45689741,-7.812830869,6.504953738,20.201436
2.801984208,19.4611943,-9.045748449,7.735569854,22.81233635
2.812064208,20.96850358,-9.872102108,8.499803864,24.68568833
2.822145208,21.63619012,-10.26711427,9.402039764,25.72813072
2.832225208,21.4076786,-10.17511418,9.885857098,25.68174102
2.842305208,20.85846366,-9.788547735,9.375317988,24.87544493
2.852386208,20.01819071,-9.295121087,8.617747466,23.69372927
2.862466208,18.89557676,-8.92206522,7.735260537,22.28183844
2.872546208,18.18871972,-8.619350773,6.583612822,21.17703215
2.882627208,17.58551277,-8.236537072,5.496514276,20.18173609
2.892707208,16.20809587,-7.635662574,4.465182087,18.46465721
2.902787208,13.93955162,-6.833833306,3.586402,15.93344458
2.912868208,11.62446118,-6.037857102,2.879333002,13.41172527
2.922948208,9.650662204,-5.360629077,2.557388524,11.33189574
2.933028208,7.707509066,-4.660491076,2.39633457,9.320316113
2.943109208,5.535588294,-3.749614161,2.008416835,6.981123284
2.953189208,3.389700496,-2.597394296,1.515234016,4.531275836
2.963269208,1.296267484,-1.375867385,1.017461717,2.146753082
2.973350208,-0.768908858,-0.038054849,0.365507696,0.852211758
2.983430208,-2.849579152,1.465695527,-0.273844405,3.216108749
2.993510208,-4.931934029,2.655368562,-0.700162559,5.644925428
3.003591208,-6.810119339,3.558905176,-0.953710109,7.742938359
3.013671208,-8.335886528,4.228629469,-1.163981393,9.41929743
3.023751208,-9.498488417,4.570196325,-1.443996949,10.63922478
3.033832208,-10.22192114,4.664534718,-1.862261879,11.38918677
3.043912208,-10.62192332,4.651209206,-2.423768829,11.84625077
3.053992208,-10.83960112,4.458234425,-3.058034729,12.11298407
3.064073208,-11.19846696,3.888534357,-3.378719132,12.32647982
3.074153208,-11.53083323,3.384804622,-3.623262262,12.55169497
3.084233208,-11.3198306,2.992529542,-3.905705582,12.34294673
3.094314208,-10.96677338,2.61721051,-3.795889025,11.89658282
3.104394208,-10.77175237,2.303564985,-3.572795529,11.58023871
3.114474208,-10.58107934,2.074560539,-3.377799658,11.29922883
3.124555208,-10.32150975,2.014828307,-3.001886549,10.93638055
3.134635208,-10.13516366,2.063990234,-2.505469927,10.64232013
3.144715208,-10.04215785,2.323544337,-2.074751889,10.51419935
3.154796208,-9.847791724,2.67710851,-1.807504897,10.36402363
3.164876208,-9.545331046,2.877261918,-1.655889958,10.1061344
3.174956208,-9.069856519,2.963440229,-1.466302761,9.653720477
3.185037208,-8.70664444,3.061453012,-1.236439943,9.311655904
3.195117208,-8.631113032,3.194889104,-1.157458823,9.275944129
3.205198208,-8.636860844,3.31628461,-1.252312794,9.336026789
3.215278208,-8.544723929,3.370584486,-1.365820406,9.28647469
3.225358208,-8.400468441,3.402308554,-1.428661456,9.175219184
3.235439208,-8.338592035,3.409314396,-1.549739605,9.140964644
3.245519208,-8.291744143,3.338011694,-1.697234742,9.098128861
3.255599208,-8.325121804,3.391709599,-1.844726372,9.176838369
3.265680208,-8.410373039,3.416348889,-2.071599509,9.311140581
3.275760208,-8.316518211,3.31769759,-2.173976653,9.213998423
3.285840208,-8.095032114,3.225575584,-2.141250957,8.973228986
3.295921208,-7.768096161,3.073192759,-2.062908792,8.604848888
3.306001208,-7.509531115,2.974893755,-1.859296171,8.288548285
3.316081208,-7.554667527,2.890528373,-1.743971245,8.274635425
3.326162208,-7.218360826,2.611935737,-1.580555016,7.837416377
3.336242208,-6.225569682,2.176423421,-1.223868429,6.707636745
3.346322208,-5.214203687,1.821486906,-0.985831203,5.610489979
3.356403208,-4.560921764,1.557170831,-0.849267728,4.893673877
3.366483208,-3.372861099,1.251995583,-0.889866115,3.70614984
3.376563208,-1.449219536,0.564294317,-0.927462543,1.810760091
3.386644208,0.596231225,-0.797930344,-0.895121008,1.339188607
3.396724208,2.81071271,-2.335819981,-0.394228635,3.675809726
3.406804208,5.342271743,-3.534001592,0.542380707,6.428313267
3.416885208,7.541319503,-4.349165142,1.596710142,8.850775139
3.426965208,9.030391906,-4.812715442,2.40603744,10.51186111
3.437045208,10.04875,-5.187585407,3.144217426,11.73773923
3.447126208,11.10766555,-5.748008283,3.817440693,13.0764172
3.457206208,11.45024924,-5.777406914,4.13363765,13.47492481
3.467286208,10.79117916,-5.314072376,4.055368575,12.6938933
3.477367208,9.604958612,-4.570766429,3.874069222,11.32058073
3.487447208,8.417782631,-3.621718305,3.405107324,9.776024948
3.497527208,7.253881491,-2.665005358,2.755538383,8.204513516
3.507608208,6.320728438,-1.746502797,2.131928741,6.895433284
3.517688208,5.720148055,-1.117993188,1.482554366,6.013981209
3.527768458,5.50564061,-0.847145773,0.772028786,5.623678772
3.537849458,5.520398397,-0.681726288,0.18704892,5.565477203
3.547929458,5.655598302,-0.814187942,0.05644785,5.714182402
3.558009458,5.910435748,-1.268927658,0.316124306,6.053376141
3.568090458,6.2155879,-1.802589874,0.630352651,6.502323251
3.578170458,6.541960182,-2.298780794,1.010141295,7.007283467
3.588250458,6.979255899,-2.741640721,1.671684164,7.682521376
3.598331458,7.359198031,-3.03961103,2.172505201,8.253290842
3.608411458,7.855748262,-3.145736825,2.434787468,8.805488683
3.618491458,8.392735498,-3.02663255,2.677175753,9.314815282
3.628572458,8.177529311,-2.637794463,2.72956739,9.015568945
3.638652458,7.242139698,-2.130319879,2.501296769,7.952567869
3.648732458,6.670512387,-1.692737064,2.267362534,7.245828258
3.658813458,6.58280883,-1.457061529,2.043069043,7.044894003
3.668893458,6.349721273,-1.319853982,1.708224877,6.706639024
3.678973458,6.045260262,-1.203035969,1.552991826,6.356433811
3.689054458,5.744834415,-0.994397667,1.531557395,6.028069113
3.699134458,5.355097026,-0.78088074,1.589656499,5.640376466
3.709214458,5.007965375,-0.646351803,1.692048993,5.325459383
3.719295458,4.653674392,-0.614163465,1.768294785,5.016049098
3.729375458,4.43959087,-0.703797188,1.671636509,4.795796722
3.739455458,4.456740169,-0.632451802,1.549394619,4.760583147
3.749536458,4.072719018,-0.393280801,1.503586362,4.359183632
3.759616458,3.413027378,-0.237415374,1.414679448,3.702220939
3.769696458,2.86506258,-0.121268621,1.277705498,3.139398191
3.779777458,2.445419607,-0.030701975,1.193657035,2.721366712
3.789857458,2.157836584,-0.004322554,1.161472206,2.450570361
3.799937458,1.86925895,0.019275931,1.182110977,2.211761051
3.810018458,1.549177687,0.107064273,1.080647898,1.891881113
3.820098458,1.147673947,0.146455795,1.032977888,1.551015185
3.830178458,0.776198582,0.11771673,0.974304587,1.25124374
3.840259458,0.573356917,0.016854014,0.838843896,1.016209277
3.850339458,0.446154833,-0.058360182,0.66704086,0.804613917
3.860419458,0.179956248,-0.04996475,0.485312467,0.520008575
3.870500458,-0.343511056,0.054950671,0.267511286,0.438841326
3.880580458,-1.062312199,0.204820071,0.080316185,1.084854442
3.890660458,-1.814264717,0.374490189,-0.079172469,1.854202698
3.900741458,-2.388367739,0.582523889,-0.261142206,2.472211518
3.910821458,-2.968096367,0.751418082,-0.407063273,3.088677012
3.920901458,-3.603555391,0.872653959,-0.542594277,3.74720495
3.930982458,-4.189531769,0.964305848,-0.747206917,4.363528434
3.941062458,-4.660281161,1.031359086,-0.949763823,4.86661827
3.951142458,-5.039703476,1.120081959,-1.127581744,5.28437653
3.961223458,-5.462944241,1.191080606,-1.295226387,5.73934179
3.971303458,-5.903958203,1.247516762,-1.488712946,6.215246316
3.981383458,-6.372985005,1.331111334,-1.679833136,6.723736656
3.991464458,-6.821198058,1.46058126,-1.893221132,7.228162064
4.001544458,-7.34085707,1.607469165,-2.08359858,7.798302551
4.011624458,-7.823733587,1.750034954,-2.271697075,8.332708874
4.021705458,-8.278079785,1.880731479,-2.3971371,8.820998929
4.031785458,-8.779550448,1.991829746,-2.460437595,9.332826205
4.041865458,-9.28482414,2.149242492,-2.549243352,9.865386169
4.051946458,-9.623870847,2.332574192,-2.622123925,10.24379453
4.062026458,-9.827214203,2.420502867,-2.649576311,10.46198966
4.072106458,-9.888270829,2.400808567,-2.674539536,10.52116645
4.082187458,-9.760445432,2.335316682,-2.664582605,10.38364096
4.092267458,-9.480536295,2.213109144,-2.548306628,10.0634133
4.102347458,-9.124690538,2.107603885,-2.294982004,9.64203889
4.112428458,-8.804285924,2.096079023,-2.024531323,9.27403499
4.122508458,-8.474364967,2.06718296,-1.784326973,8.903478519
4.132588458,-8.165616193,2.009759794,-1.478750314,8.538332667
4.142669458,-7.910739571,1.997817149,-1.20702377,8.247907632
4.152749458,-7.468521668,1.913067751,-1.009136743,7.775410028
4.162829458,-6.616003473,1.624335458,-0.732553941,6.851759111
4.172910458,-5.520019498,1.167196484,-0.393199525,5.655755366
4.182990458,-4.176100715,0.679343255,-0.204257861,4.235923242
4.193070458,-2.551087564,0.00045082,0.047357769,2.551527135
4.203151458,-0.164443585,-1.08107913,0.386262388,1.159729456
4.213231458,3.148742001,-2.577257363,1.075088073,4.208639456
4.223311458,6.794216082,-4.334119964,2.295768893,8.379529989
4.233392458,10.48175503,-6.467812225,3.79156267,12.88703732
4.243472458,13.71622306,-8.502782435,5.841538591,17.16262385
4.253552458,15.83290577,-9.530068059,7.570945591,19.97053629
4.263633458,17.9255576,-10.39560449,8.377386557,22.35117029
4.273713458,20.38834285,-11.5456337,8.980093573,25.09239451
4.283793458,22.0360508,-11.78956667,8.985860682,26.5579952
4.293874458,22.17437253,-10.99168369,8.100946573,26.04122199
4.303954458,20.84973026,-9.964246041,6.950516834,24.13104091
4.314034458,18.27625722,-8.962468895,5.945546524,21.20605928
4.324115458,14.94097267,-7.423716794,4.687519538,17.32965882
4.334195458,11.4412878,-5.377917539,3.107872303,13.01859953
4.344275458,8.04215282,-3.090610737,1.225534301,8.70230033
4.354356458,5.004818988,-0.868889814,-0.660105039,5.122394096
4.364436458,2.225692937,0.95108237,-2.219935184,3.284262313
4.374516458,-0.644965428,2.432924838,-3.345927655,4.186924353
4.384597458,-3.374517031,3.738935683,-3.947361732,6.399114773
4.394677458,-5.601532023,4.902188074,-4.241593623,8.567363969
4.404757458,-7.293775874,5.788868626,-4.495500777,10.34019795
4.414838458,-8.27016324,6.496493987,-4.778235873,11.55125847
4.424918458,-8.856598624,7.060356195,-4.986715423,12.37559289
4.434998458,-9.321966823,7.337779096,-5.075453938,12.90357703
4.445079458,-9.598844764,7.301087233,-4.99490211,13.05345712
4.455159458,-9.509101698,7.15628503,-4.834353648,12.84548192
4.465239458,-9.159531757,7.063739394,-4.583416588,12.44191078
4.475320458,-8.82398344,6.961456389,-4.161129211,11.98497205
4.485400458,-8.545063652,6.823974316,-3.628742273,11.52182749
4.495480458,-8.340086583,6.663068297,-3.060135634,11.1048617
4.505561458,-8.212833629,6.542487016,-2.483546961,10.78993874
4.515641458,-8.03129571,6.48659582,-1.945654723,10.50538949
4.525720833,-7.761991083,6.447168045,-1.583212575,10.21376735
4.535801833,-7.566578305,6.36909953,-1.384711445,9.986789367
4.545881833,-7.445913409,6.257895429,-1.328083354,9.816653558
4.555961833,-7.398062135,6.217401706,-1.261392351,9.745692279
4.566042833,-7.353475361,6.151799455,-1.158707643,9.657165206
4.576122833,-7.215647718,6.077621677,-1.104026236,9.498522578
4.586202833,-7.066039689,6.019720209,-1.102532711,9.347808655
4.596283833,-6.866736174,5.951051093,-1.101610166,9.153175391
4.606363833,-6.514394068,5.805023314,-1.073555372,8.791367748
4.616443833,-6.171522698,5.594311881,-1.048417607,8.395427167
4.626523833,-5.855015838,5.342922539,-0.955963626,7.983852339
4.636604833,-5.168980737,4.959365072,-0.747713286,7.202273178
4.646684833,-4.025646009,4.172508478,-0.482853128,5.817972149
4.656764833,-1.922883765,2.861458063,-0.069324589,3.448221298
4.666845833,0.876191232,1.174931912,0.651496183,1.603939946
4.676925833,4.291500193,-1.014249256,1.58748192,4.686765869
4.687005833,8.557440453,-4.237097699,3.314215573,10.10775984
4.697086833,13.11153676,-7.64394457,5.300989816,16.07615557
4.707166833,16.94854282,-10.06265351,6.842248619,20.86447856
4.717246833,19.24732303,-11.28011515,7.781680412,23.62742033
4.727327833,21.51289807,-13.10278699,8.579618357,26.6101045
4.737407833,24.39837504,-15.16904565,9.796061992,30.35364032
4.747487833,25.45239179,-15.47472522,10.30811378,31.52060561
4.757568833,24.21560745,-14.12280335,9.436224341,29.57856569
4.767648833,21.93420633,-12.58103409,8.354511665,26.63061568
4.777728833,18.68221888,-10.8637969,7.360841684,22.83044843
4.787809833,14.51386163,-8.103000115,5.775952127,17.59751156
4.797889833,10.34699191,-4.851078147,3.211722361,11.87048278
4.807969833,6.200019103,-1.875913958,0.018385985,6.47762519
4.818050833,2.206014132,0.401959823,-2.91858156,3.680514689
4.828130833,-1.25997674,1.956029145,-4.814298283,5.347060815
4.838210833,-4.336166489,2.815559467,-5.81881865,7.783852864
4.848291833,-6.890902716,3.38737155,-6.320834273,9.945439767
4.858371833,-8.707997485,3.998253558,-6.657544432,11.6678254
4.868451833,-9.801848397,4.376469008,-6.944321124,12.78488595
4.878532833,-10.34595462,4.346420166,-7.080271811,13.26877516
4.888612833,-10.77071741,4.235125141,-7.094635497,13.57492141
4.898692833,-11.04462087,4.107137484,-6.753579687,13.58171812
4.908773833,-10.96794634,3.962154018,-6.037754191,13.13198336
4.918853833,-10.65278258,3.902280284,-5.178470768,12.47101149
4.928933833,-10.21230247,3.891889781,-4.274421061,11.7349309
4.939014833,-9.707354468,3.873889128,-3.319368432,10.96621879
4.949094833,-9.157560076,3.862193235,-2.39465832,10.22310284
4.959174833,-8.654257481,3.832415704,-1.668910391,9.610871166
4.969255833,-8.334462147,3.955186476,-1.162364491,9.298271374
4.979335833,-8.115005034,3.995960572,-0.847209508,9.085085115
4.989415833,-7.910970536,3.981129402,-0.658548656,8.880683109
4.999496833,-7.711484004,4.026433629,-0.668900421,8.725054789
5.009576833,-7.672532777,4.105085111,-0.729384604,8.732209622
5.019656833,-7.725714372,4.179847026,-0.832635323,8.823325071
5.029737833,-7.720361246,4.128499117,-1.062564799,8.819156801
5.039817833,-7.611920539,4.124220417,-1.251863874,8.74743914
5.049897833,-7.554376336,4.22796084,-1.467096959,8.780468562
5.059977833,-7.516674659,4.213307133,-1.659569026,8.775336134
5.070058833,-7.283300588,3.982681838,-1.698321447,8.473046548
5.080138833,-6.600931106,3.609987913,-1.518253518,7.67524579
5.090218833,-5.693144444,3.252346476,-1.117680069,6.651229961
5.100299833,-5.003002258,2.653371153,-0.791036038,5.718054572
5.110379833,-3.526225964,1.721251888,-0.3459587,3.93911983
5.120459833,-0.613629615,0.12168582,0.447648797,0.769245207
5.130540833,3.181702756,-2.463731624,1.933141535,4.464329976
5.140620833,7.084063731,-5.489271914,3.981199861,9.806427353
5.150700833,11.00605381,-8.215073698,5.895728831,14.94591164
5.160781833,14.46635534,-10.41071721,7.741820528,19.43178465
5.170861833,16.16843538,-11.37230469,8.930921413,21.69121882
5.180941833,16.78115575,-11.74713577,9.738917153,22.68146588
5.191022833,19.0778906,-13.70371119,10.52746973,25.74073094
5.201102833,21.57297003,-15.61209152,11.13301089,28.86302772
5.211182833,22.81307559,-15.45513939,10.52594478,29.49734335
5.221263833,23.01904259,-14.31726654,9.416364273,28.69718382
5.231343833,21.63869741,-12.94515775,8.471662384,26.60036463
5.241423833,18.08593152,-10.36324366,7.19646885,22.0519138
5.251504833,13.48589422,-6.677246041,5.475819225,16.01373016
5.261584833,8.852587434,-2.883458797,3.671228142,10.00802453
5.271664833,4.876267952,0.260153442,1.500107707,5.10842364
5.281745833,1.645622247,2.676833983,-0.694882523,3.218132141
5.291825833,-0.738524972,4.215034985,-2.452417116,4.932168769
5.301905833,-2.731875871,5.18097513,-3.527630466,6.837384425
5.311986833,-4.725070649,6.018147308,-4.227869039,8.741811384
5.322066833,-6.499379003,6.684077343,-4.74302891,10.46016924
5.332146833,-7.696911573,6.999618827,-5.44063419,11.74042639
5.342227833,-8.368720983,7.223680623,-6.188593644,12.66948081
5.352307833,-8.790263717,7.334632709,-6.769689351,13.30016042
5.362387833,-9.242126602,7.157057447,-7.25667763,13.75862441
5.372468833,-9.632753937,6.871485282,-7.365221833,13.93749443
5.382548833,-9.731600533,6.562151202,-7.264067341,13.80335291
5.392628833,-9.502814187,6.235170225,-6.836238266,13.26329442
5.402708833,-9.231610969,6.012160928,-6.269003384,12.67553248
5.412789833,-8.882066172,5.995174182,-5.863190246,12.21516323
5.422869833,-8.418678424,6.457497736,-5.623013524,12.00798503
5.432949833,-7.806722283,6.35963815,-5.029339287,11.25540598
5.443030833,-7.76798331,5.537904961,-4.615746428,10.5978805
5.453110833,-7.965031554,5.017970545,-4.292293661,10.3462815
5.463190833,-7.885125259,5.103060397,-3.918750721,10.17708372
5.473271833,-7.838077392,4.968264534,-3.628832905,9.96431322
5.483351833,-7.645497006,4.778707743,-3.247407918,9.583075203
5.493431833,-7.352376085,4.789248227,-2.999573683,9.27317502
5.503512833,-7.167584774,4.834362711,-2.90604279,9.120878194
5.513592833,-6.981138702,4.759914207,-2.78454642,8.896447583
5.523673375,-6.675534561,4.713773244,-2.575854323,8.568398063
5.533754375,-6.367298588,4.623978138,-2.404430625,8.228301875
5.543834375,-5.882117683,4.355033408,-2.295062695,7.670263176
5.553914375,-5.352775097,4.067854135,-2.025508246,7.021561234
5.563995375,-4.724152637,3.488746774,-1.701789577,6.114332339
5.574075375,-3.376039061,2.43892832,-1.115822116,4.311736319
5.584155375,-1.220323262,0.895471256,-0.034192178,1.514010152
5.594236375,1.624044852,-1.174079388,1.49571484,2.500629315
5.604316375,5.137245559,-4.177268404,3.672614517,7.571589043
5.614396375,8.938278964,-7.009673699,5.752639278,12.73268294
5.624477375,12.91605148,-9.427734184,7.265624455,17.56405011
5.634557375,16.3603866,-11.16978169,8.548059765,21.57534701
5.644637375,19.43473916,-12.37499926,9.979633573,25.10861962
5.654717375,23.03544286,-14.57035158,12.11962212,29.82971695
5.664798375,24.41476829,-14.92371168,13.15748184,31.49472035
5.674878375,23.41058619,-12.84849977,12.2668246,29.38731831
5.684958375,21.62264797,-10.89800077,10.89190213,26.5506847
5.695039375,19.89293399,-9.360978277,9.023374078,23.76505874
5.705119375,19.19474487,-7.514691283,6.765558293,21.6951975
5.715199375,18.96329219,-4.648549892,3.837950679,19.89837512
5.725280375,15.29358901,-1.471102886,0.540433438,15.3736813
5.735360375,10.33783751,1.212119619,-1.118347821,10.46856343
5.745440375,5.030121059,3.688808965,-1.827490096,6.499934577
5.755521375,-2.1357727,4.773996057,-3.909147838,6.529471663
5.765601375,-8.598731151,5.30796379,-4.411629485,11.02611136
5.775681375,-12.87104546,5.333148918,-3.893890114,14.46612142
5.785762375,-15.66416214,4.331453633,-3.320605702,16.58776322
5.795842375,-15.93214004,3.760437357,-2.872165192,16.61996715
5.805922375,-13.75400309,3.765541976,-2.457112284,14.47029054
5.816003375,-11.50330103,3.267158935,-1.860766454,12.10217806
5.826083375,-11.1728854,2.921015756,-2.186873857,11.75364277
5.836163375,-11.66070223,2.687285589,-2.189439615,12.16499593
5.846244375,-12.26340515,2.318779441,-0.639128591,12.49705282
5.856324375,-12.2830705,2.120372888,0.09604059,12.46511235
5.866404375,-11.18487219,1.870699411,0.35778177,11.34587546
5.876484375,-9.922584629,1.995017063,0.318221848,10.12615643
5.886565375,-9.386910093,2.283847297,0.101142797,9.661276802
5.896645375,-9.435650729,2.442157445,0.062919549,9.746773647
5.906725375,-9.28991765,2.734404207,0.106480136,9.684568876
5.916806375,-9.04648052,3.015227264,0.120182492,9.536500883
5.926886375,-8.818983486,3.25401878,-0.09389342,9.400634229
5.936966375,-8.488474299,3.354157903,-0.271974502,9.131185098
5.947047375,-8.280531523,3.433821538,-0.366513454,8.971770437
5.957127375,-8.159210569,3.508400143,-0.55784133,8.899032285
5.967207375,-8.307926313,3.541369961,-0.719421022,9.059829326
5.977288375,-8.226289827,3.433452287,-0.86315545,8.955751015
5.987368375,-7.890883597,3.190285299,-0.854671798,8.554205288
5.997448375,-7.367047334,2.930313998,-0.866007721,7.975593766
6.007529375,-6.51445254,2.551663515,-0.807608655,7.042819771
6.017609375,-5.120786816,1.82782441,-0.482772437,5.458614194
6.027689375,-3.432564679,0.939118236,0.068231013,3.559367754
6.037770375,-1.416746439,0.234431102,0.370512036,1.48303998
6.047850375,1.44288817,-0.807869441,0.85751581,1.86277016
6.057930375,4.882165453,-2.659558385,2.004405645,5.909858908
6.068010375,8.300427843,-5.416747144,3.942613792,10.66688593
6.078091375,11.30656093,-8.601219141,6.120536731,15.46868646
6.088171375,14.26606482,-11.59305228,7.500079091,19.85373146
6.098251375,17.62228942,-14.32218171,8.133064744,24.12087717
6.108332375,21.34735638,-16.59089203,8.733070346,28.41186091
6.118412375,23.77679029,-17.17677602,9.127014806,30.71937158
6.128492375,23.89591678,-16.16574449,8.692171412,30.13137862
6.138573375,23.53385952,-15.07805479,7.740614247,29.00185148
6.148653375,22.8335502,-13.92294903,7.000657877,27.64468729
6.158733375,20.17716715,-11.85566594,6.351119927,24.24895076
6.168814375,15.85783596,-8.499927825,5.114161336,18.70492931
6.178894375,11.29419407,-4.856363737,3.612044964,12.81366291
6.188974375,7.273219403,-1.861130443,1.852211393,7.732671857
6.199055375,3.680770213,0.960719459,-0.1690623,3.807838403
6.209135375,0.305676062,3.885048247,-2.330737727,4.540856317
6.219215375,-2.630583969,6.0028966,-4.164060128,7.764929901
6.229296375,-4.903271563,7.273353889,-5.002043315,10.09773173
6.239376375,-6.573970179,7.954977851,-5.138698592,11.52844221
6.249456375,-7.718533407,8.313703362,-5.185848784,12.47342973
6.259537375,-8.701522864,8.445444639,-5.589500207,13.35232369
6.269617375,-9.405720001,8.272893305,-5.797448831,13.8028528
6.279697375,-9.640553538,7.740010815,-5.64071363,13.58917548
6.289777375,-9.632690787,6.999283197,-5.393871083,13.07182246
6.299858375,-9.695837207,6.326081564,-5.025428084,12.6207565
6.309938375,-9.684632188,5.958057811,-4.488599308,12.22448679
6.320018375,-9.422202718,5.742216032,-3.940066161,11.71644444
6.330099375,-8.92383985,5.610395232,-3.376115367,11.06840582
6.340179375,-8.469419392,5.554982924,-2.652615693,10.4702087
6.350259375,-8.226610839,5.626918294,-2.087445609,10.18316083
6.360340375,-8.182411736,5.864403543,-1.628287591,10.19776501
6.370420375,-8.209719402,6.07083189,-1.336613418,10.29762244
6.380500375,-8.299981701,6.203012293,-1.163473123,10.4269232
6.390581375,-8.441369129,6.173440585,-0.938812573,10.49997383
6.400661375,-8.586205246,6.031189522,-0.674096841,10.51439842
6.410741375,-8.58707882,5.92494386,-0.607860167,10.45047254
6.420821375,-8.490800906,5.843102721,-0.881970035,10.34472912
6.430902375,-8.460638044,5.673601879,-1.600310419,10.31179654
6.440982375,-8.002154356,5.532392791,-1.437856349,9.834087411
6.451062375,-7.332730025,5.287421937,-1.023490488,9.097982916
6.461143375,-6.423509041,4.798262002,-0.794702973,8.057067671
6.471223375,-5.635312557,4.372954539,-0.779420983,7.175442571
6.481303375,-4.77163729,3.98914418,-0.664323805,6.254847707
6.491384375,-3.2449784,3.335186904,-0.184442816,4.656970652
6.501464375,-1.582331985,2.210246055,0.596962711,2.783042689
6.511544375,0.291293666,0.612928534,1.534503515,1.677866033
6.521625375,2.832162051,-1.460816903,2.712422769,4.184777794
6.531705083,6.171594619,-3.617745122,4.074366764,8.232686343
6.541785083,9.818639846,-5.915221694,6.208149657,13.03597554
6.551866083,13.20441744,-8.394198471,8.672152884,17.88925498
6.561946083,16.39858062,-10.33716859,10.42025519,22.00800352
6.572026083,19.89911333,-11.93367481,11.58834527,25.93601843
6.582107083,23.67621584,-13.48756185,12.71476576,30.06896721
6.592187083,26.60914646,-13.46144818,13.60869978,32.77886472
6.602267083,27.21193593,-11.96278108,13.63443923,32.70314237
6.612348083,25.29622436,-10.15899107,12.53579652,30.00417072
6.622428083,21.55216563,-8.093193165,10.77021572,25.41639561
6.632508083,16.42827629,-5.818470156,8.678339238,19.46937155
6.642588083,11.30372503,-3.325205415,6.932403914,13.67075033
6.652669083,6.594174063,-1.063725033,4.459207694,8.031137888
6.662749083,2.603937038,0.609649707,1.134765926,2.90514278
6.672829083,-0.658049743,1.663228067,-2.114757223,2.769757242
6.682910083,-3.556761294,2.268090805,-4.403876369,6.098271384
6.692990083,-6.816419129,2.66409904,-5.966909326,9.442722083
6.703070083,-9.623656839,2.813398921,-7.158937912,12.31991788
6.713151083,-11.20207704,2.965868577,-8.061572008,14.11636814
6.723231083,-11.72359137,3.013674828,-8.391823332,14.72913879
6.733311083,-11.56764262,2.833659231,-7.957108576,14.32325233
6.743392083,-11.16062262,2.411739644,-6.997432553,13.39179031
6.753472083,-10.84831581,2.105571685,-6.261686178,12.70149998
6.763552083,-10.53621951,1.989216479,-5.436230067,12.02170957
6.773632083,-10.1505243,1.93552983,-4.421579692,11.23965241
6.783713083,-9.780082136,1.977426007,-3.436012198,10.553028
6.793793083,-9.443421094,2.093865413,-2.707140394,10.04445536
6.803873083,-9.153513803,2.196867772,-2.087244611,9.642076177
6.813954083,-8.9619865,2.276650983,-1.574867137,9.379794679
6.824034083,-8.833156552,2.433129783,-1.324426651,9.257369019
6.834114083,-8.815116137,2.678368,-1.226288592,9.294283801
6.844195083,-8.74783632,2.859568828,-1.215253726,9.283243818
6.854275083,-8.696689555,3.007558933,-1.408125889,9.309169591
6.864355083,-8.731454176,3.100320624,-1.744229399,9.428288084
6.874436083,-8.732661041,3.172499238,-2.146913108,9.535898288
6.884516083,-8.746793761,3.213325667,-2.40637497,9.624058574
6.894596083,-8.5058914,3.11180017,-2.477485737,9.389964025
6.904676083,-7.981480941,2.828353175,-2.342905345,8.785944749
6.914757083,-7.718612344,2.634961195,-2.13094407,8.429763914
6.924837083,-7.535103913,2.551707661,-2.091752522,8.225839263
6.934917083,-7.097162079,2.287445674,-1.923248631,7.70071442
6.944998083,-6.363567479,1.718322433,-1.455302394,6.7502243
6.955078083,-5.044981173,0.801960099,-0.866754703,5.181335615
6.965158083,-2.445901417,-0.132764978,-0.262696981,2.463548251
6.975239083,0.967838736,-1.351826704,0.681503802,1.796829065
6.985319083,4.626846782,-3.076953396,2.012239452,5.90969212
6.995399083,8.402190446,-5.384400347,3.977793565,10.7429704
7.005480083,12.54153849,-8.256343346,6.392083181,16.31919485
7.015560083,16.03771152,-10.51043562,8.204650451,20.85650346
7.025640083,18.26385527,-11.68977107,9.15172397,23.53663546
7.035721083,20.93308817,-13.03890967,10.08425546,26.64394028
7.045801083,24.10572423,-14.80948399,11.31511775,30.47029121
7.055881083,25.6525069,-15.23589336,11.52130577,31.98318376
7.065961083,24.94761804,-13.98668134,10.29207954,30.39634521
7.076042083,22.48342828,-12.10975903,9.13794793,27.12292211
7.086122083,18.55069395,-9.938482039,8.129768084,22.56091311
7.096202083,13.73940961,-7.154106358,6.429470862,16.77172352
7.106283083,9.113235258,-3.77049603,3.934948093,10.61845157
7.116363083,5.130992546,-0.26580346,1.195984812,5.275236076
7.126443083,2.180265918,2.345304311,-1.090613308,3.382816751
7.136524083,-0.253374472,3.597218179,-2.511826727,4.39470713
7.146604083,-2.670416957,4.117222762,-3.54453769,6.053626799
7.156684083,-4.755284967,4.741631426,-4.218769309,7.930562286
7.166765083,-6.61122279,5.352542378,-4.629426281,9.684501246
7.176845083,-8.270125233,5.723562244,-5.164513464,11.30603093
7.186925083,-9.564589435,5.914243455,-5.683525189,12.60008354
7.197005083,-10.43324536,5.879033276,-6.028085235,13.40721644
7.207086083,-10.8774981,5.618945616,-6.238836429,13.74101869
7.217166083,-11.10483082,5.399246428,-6.374920433,13.89635708
7.227246083,-11.14153497,5.198155419,-6.198425152,13.76862722
7.237327083,-11.09682949,5.072081848,-5.736865245,13.48247981
7.247407083,-10.90265516,5.00209477,-5.085554418,13.02887966
7.257487083,-10.58105829,4.867800014,-4.249264585,12.39800472
7.267568083,-10.21690072,4.784195355,-3.420436385,11.78867976
7.277648083,-9.76542726,4.744890372,-2.718772845,11.19237598
7.287728083,-9.124304622,4.609939266,-2.092577126,10.43471868
7.297809083,-8.683826265,4.478459359,-1.640031139,9.90732754
7.307889083,-8.439856455,4.578134798,-1.43506942,9.708239771
7.317969083,-8.280488838,4.739569113,-1.30877307,9.630311403
7.328049083,-8.139605439,4.881910515,-1.261380656,9.574826794
7.338130083,-7.9866797,5.045790428,-1.267799145,9.531755785
7.348210083,-7.888182768,5.174944897,-1.337451763,9.52849722
7.358290083,-7.802693551,5.344172089,-1.524870227,9.579531887
7.368371083,-7.760214699,5.549666051,-1.737127663,9.697285082
7.378451083,-7.731017797,5.704879221,-1.88919854,9.792004607
7.388531083,-7.470621403,5.65566613,-1.867387841,9.554259829
7.398612083,-6.784870477,5.166170565,-1.558253151,8.669021777
7.408692083,-5.850597097,4.139915513,-1.020004378,7.239391948
7.418772083,-3.982473677,2.545552882,-0.274241723,4.734463495
7.428852083,-0.330335525,0.327006997,0.721140322,0.857961829
7.438933083,4.328835835,-2.658524305,2.452618991,5.641091302
7.449013083,9.308449815,-6.170818108,4.617539769,12.08502824
7.459093083,13.86275312,-9.440230268,7.012703142,18.17888547
7.469174083,16.98236078,-11.82198481,9.169747428,22.63281181
7.479254083,18.32340332,-13.02014946,10.66586748,24.88035631
7.489334083,19.03166252,-14.07659164,11.78048361,26.44114983
7.499415083,20.25302191,-15.56485186,12.9096137,28.62005653
7.509495083,21.30463896,-16.11153612,13.56594026,29.95837066
7.519575083,21.92164184,-15.93825856,13.25589984,30.17126692
7.529656125,21.89087847,-15.54035086,12.1432858,29.46476633
7.539736125,19.93015971,-13.92692865,10.61863835,26.53160545
7.549816125,15.72640459,-10.5368206,8.394059892,20.70759839
7.559896125,10.70325107,-6.542926142,5.505226627,13.69952503
7.569977125,6.106279466,-2.838673218,2.555265692,7.202367479
7.580057125,2.316199064,0.424225728,0.044837034,2.355155182
7.590137125,-0.686468965,3.243805741,-2.149966232,3.951692058
7.600218125,-2.978303266,5.147279381,-3.850912202,7.084793586
7.610298125,-4.762939557,6.074830216,-4.824608094,9.103076328
7.620378125,-6.37110571,6.454770595,-5.203899139,10.45636733
7.630459125,-7.579629875,6.498747504,-5.704136624,11.49876875
7.640539125,-8.34730848,6.24488362,-6.193019986,12.12557738
7.650619125,-8.82062246,5.928794836,-6.404524301,12.40854223
7.660699125,-9.006824704,5.60624137,-6.386512538,12.38306812
7.670780125,-9.242731789,5.187598271,-6.3910874,12.3768035
7.680860125,-9.605881888,4.777053566,-6.148481745,12.36515408
7.690940125,-9.960654681,4.485511686,-5.682193193,12.31347945
7.701021125,-10.04848454,4.325877144,-5.056782024,12.05223212
7.711101125,-9.830918999,4.228597309,-4.357343058,11.55484496
7.721181125,-9.501995577,4.157314196,-3.700052576,11.01188314
7.731262125,-9.210841075,4.067182582,-3.066562893,10.52546319
7.741342125,-8.873095374,4.186997586,-2.496816047,10.12407332
7.751422125,-8.577886997,4.334072016,-2.036598076,9.824055033
7.761503125,-8.432759104,4.382508012,-1.705786149,9.655439347
7.771583125,-8.363794704,4.412387284,-1.573734823,9.586389555
7.781663125,-8.180699671,4.427653779,-1.593018356,9.43746113
7.791743125,-8.062478911,4.4621237,-1.688313645,9.368271829
7.801824125,-8.067460154,4.555224822,-1.810533024,9.43991612
7.811904125,-8.119535456,4.641836119,-2.009456616,9.566159861
7.821984125,-7.982222952,4.643559294,-2.177530883,9.487895811
7.832065125,-7.666914187,4.564986749,-2.322122878,9.220245758
7.842145125,-7.267823008,4.380061537,-2.493845954,8.844515701
7.852225125,-6.972925703,4.221034813,-2.572322897,8.547261131
7.862306125,-6.508273203,4.012692087,-2.451850374,8.029376572
7.872386125,-5.076882997,3.302078215,-2.044786224,6.392152392
7.882466125,-2.734567929,1.911884713,-1.302398289,3.58181605
7.892546125,0.540945801,0.01961887,-0.303195673,0.620431201
7.902627125,4.718445754,-2.512227846,0.932418058,5.426271512
7.912707125,9.38007119,-5.756604275,2.575408181,11.30296225
7.922787125,13.88761899,-9.218872225,4.782359914,17.34141092
7.932868125,17.26355338,-12.09992635,7.375772549,22.33473783
7.942948125,18.62759653,-12.62639211,9.348697954,24.36824334
7.953028125,19.74062806,-12.59978845,10.90790829,25.83465751
7.963109125,22.46844772,-14.38780969,12.72695136,29.56037045
7.973189125,24.9684084,-15.5827958,13.62464397,32.43263582
7.983269125,25.45994406,-14.70870021,12.90233859,32.1095773
7.993350125,24.0665549,-12.90674622,11.33060936,29.56629621
8.003430125,20.49455167,-10.88108829,10.2738257,25.37668665
8.013510125,15.64828228,-8.03768847,8.785064372,19.66343129
8.023590125,10.71079865,-4.755768532,6.261845807,13.28718386
8.033671125,5.859145727,-1.672725553,3.55916333,7.056574455
8.043751125,1.74735152,1.090761827,0.825064348,2.218947921
8.053831125,-1.399557964,3.070125894,-1.499117335,3.692125172
8.063912125,-3.898412935,4.095360899,-3.101988249,6.449180987
8.073992125,-6.166740845,4.563916708,-4.212301996,8.752229229
8.084072125,-8.03468651,5.058246167,-5.288497825,10.86785401
8.094153125,-9.249135659,5.622152814,-6.229986084,12.48870847
8.104233125,-9.857516813,5.749133288,-7.027988348,13.40208161
8.114313125,-10.19689506,5.625276981,-7.330416867,13.76064756
8.124393125,-10.48336068,5.555633719,-7.094315654,13.82371989
8.134474125,-10.73048623,5.518481095,-6.654762327,13.77979789
8.144554125,-10.74141,5.310679237,-6.069730859,13.43215677
8.154634125,-10.65002503,5.053977115,-5.354964879,12.94763943
8.164715125,-10.4814311,4.938900402,-4.576499916,12.45782832
8.174795125,-10.15119673,4.901383497,-3.857851385,11.91441868
8.184875125,-9.75909531,4.889052889,-3.259266656,11.39147043
8.194956125,-9.409756334,4.912089749,-2.678646913,10.94747867
8.205036125,-9.139525509,4.868767143,-2.123249426,10.57090385
8.215116125,-8.841300554,4.787310167,-1.663068292,10.19081598
8.225196125,-8.4949191,4.687123389,-1.412381492,9.80446825
8.235277125,-8.168859059,4.61486993,-1.305365313,9.472658624
8.245357125,-8.016289415,4.608392092,-1.236006664,9.328766593
8.255437125,-7.877453712,4.555218975,-1.27480177,9.188548114
8.265518125,-7.751393589,4.475117968,-1.422151313,9.062742287
8.275598125,-7.833411314,4.491402463,-1.532524817,9.15880239
8.285678125,-8.002716858,4.519222931,-1.52724902,9.316616477
8.295759125,-7.891767111,4.397310238,-1.509830604,9.159471268
8.305839125,-7.467822926,4.060974886,-1.389355742,8.613373651
8.315919125,-6.998323084,3.61536589,-1.007420293,7.941177001
8.325999125,-6.695924971,3.136490038,-0.45424621,7.408057815
8.336080125,-6.064614546,2.530287264,0.047089382,6.571462595
8.346160125,-4.685625333,1.505969833,0.487745347,4.945798765
8.356240125,-2.336417567,-0.135360703,0.967100671,2.532282226
8.366321125,1.231223642,-2.629765944,1.706771551,3.368181958
8.376401125,6.046102846,-5.846537375,2.824419461,8.872130758
8.386481125,11.49848877,-9.405337594,4.209101523,15.4399532
8.396562125,16.0657723,-12.79850256,6.293237754,21.48291296
8.406642125,18.71785649,-14.57254896,7.746214126,24.95438174
8.416722125,20.65349771,-14.89496794,8.630509014,26.88703634
8.426802125,23.67994402,-16.14832446,10.31649284,30.46207735
8.436883125,26.52385664,-17.74676494,12.11310832,34.13487996
8.446963125,27.70379201,-16.88998764,12.36805394,34.72377474
8.457043125,26.4004149,-14.09470982,11.31536333,31.99500272
8.467124125,22.78688006,-11.76191285,10.0429215,27.53987598
8.477204125,18.45356468,-8.897292906,8.631207172,22.23046575
8.487284125,14.1973881,-5.26024174,6.759493561,16.58091449
8.497365125,10.07020227,-2.004142813,4.700717581,11.29257756
8.507445125,6.300022278,0.836245394,2.524933553,6.838484958
8.517525125,3.035054002,3.211986947,0.365419403,4.4341791
8.527606375,0.154850643,4.919450809,-1.469915171,5.136694033
8.537687375,-2.250433091,6.075784482,-2.835053207,7.072279184
8.547767375,-4.043092931,6.703911098,-3.801913704,8.703078322
8.557847375,-5.327412799,6.988385156,-4.652344735,9.942995814
8.567928375,-6.201176267,7.076736585,-5.6291531,10.96458629
8.578008375,-6.902636908,7.173993323,-6.571112645,11.92862515
8.588088375,-7.82684723,7.273640403,-6.995515251,12.77116345
8.598169375,-8.715418772,7.307177693,-7.060939747,13.3869429
8.608249375,-9.303445768,7.374792556,-7.166593087,13.86728974
8.618329375,-9.580798502,7.499106699,-7.194297194,14.1345751
8.628409375,-9.607867017,7.48990786,-6.969081743,14.03488257
8.638490375,-9.35224546,7.401579235,-6.519957694,13.59256115
8.648570375,-8.985247893,7.285907861,-5.952735676,13.00977306
8.658650375,-8.637356104,7.121357857,-5.389899069,12.42451891
8.668731375,-8.2192796,6.916984806,-4.790324114,11.76216141
8.678811375,-7.864253622,6.697714219,-4.139995912,11.12858603
8.688891375,-7.570373148,6.542036195,-3.51700666,10.60557038
8.698972375,-7.120905282,6.381102694,-3.000819432,10.02151091
8.709052375,-6.765547768,6.27850394,-2.402379129,9.537487814
8.719132375,-6.694918081,6.324425633,-1.941600117,9.412231335
8.729212375,-6.639144999,6.378356842,-1.701993499,9.362609902
8.739293375,-6.541061465,6.365805793,-1.492744162,9.24863523
8.749373375,-6.585451772,6.436328477,-1.277293854,9.296557367
8.759453375,-6.79119424,6.633135231,-1.16740216,9.564602971
8.769534375,-6.967035803,6.830778721,-1.06637426,9.81510468
8.779614375,-6.933510792,6.816445441,-0.913417238,9.765850265
8.789694375,-6.48082111,6.464250101,-0.798434081,9.188311521
8.799774375,-6.169603057,6.145014346,-0.584840848,8.727384603
8.809855375,-6.291131587,6.008494724,-0.393800034,8.708353688
8.819935375,-6.183996563,5.571817642,-0.285775941,8.328783418
8.830015375,-4.897963461,4.423471266,0.141442977,6.601299131
8.840096375,-2.55430938,2.397490857,0.969539106,3.634895445
8.850176375,0.54399103,-0.296657609,1.883222685,1.982538691
8.860256375,4.422549745,-3.758943978,3.114375576,6.586952353
8.870336375,8.448566467,-8.287720674,5.459102036,13.03327988
8.880417375,13.08964245,-12.93241316,8.679156679,20.34487184
8.890497375,16.82087706,-15.3278303,10.88437559,25.22605634
8.900577375,19.84092184,-16.61647477,12.26430094,28.63882838
8.910658375,24.56513061,-19.99714307,15.24815497,35.15448197
8.920738375,28.72431124,-22.05725046,17.14972096,40.07145222
8.930818375,28.84304012,-20.16532069,16.23730038,38.75836742
8.940899375,25.51655914,-16.67140702,14.08620446,33.57754843
8.950979375,21.33900656,-13.51784341,12.02770856,27.97768869
8.961059375,16.55251559,-9.914122539,9.719500304,21.60426541
8.971140375,11.58107718,-5.674226362,6.674549305,14.52128789
8.981220375,7.569845729,-1.929468022,3.128113317,8.41489775
8.991300375,4.37585622,0.379055987,-0.311876742,4.403301965
9.001380375,1.51513052,1.833066439,-3.182468741,3.972890679
9.011461375,-1.537751643,3.19827815,-5.376663312,6.442217911
9.021541375,-4.534371897,4.534211683,-6.876453661,9.402404961
9.031621375,-7.243471109,5.323888097,-8.183427982,12.15648599
9.041702375,-8.883410447,5.383952451,-8.791655354,13.6086417
9.051782375,-9.570895073,5.031973457,-9.233427114,14.218965
9.061862375,-10.0128633,4.720577941,-9.471100059,14.56856286
9.071942375,-10.42824248,4.714625768,-9.442382628,14.83693119
9.082023375,-10.63122273,4.636485625,-9.1897145,14.79766023
9.092103375,-10.73773093,4.365300533,-8.9301297,14.63222234
9.102183375,-10.68034869,4.143506873,-8.39443119,14.20228758
9.112264375,-10.47747604,3.837759767,-7.681141047,13.54643244
9.122344375,-10.26577409,3.54532531,-6.786615286,12.80677931
9.132424375,-9.938987238,3.18195711,-5.858275661,11.96777808
9.142505375,-9.397287147,2.943703537,-5.017233211,11.05201454
9.152585375,-8.92547824,2.849665984,-4.161154647,10.25182745
9.162665375,-8.722582195,2.89133909,-3.444671339,9.813717059
9.172745375,-8.657509117,2.93880854,-2.983835609,9.617293522
9.182826375,-8.674911016,2.951872682,-2.612915438,9.528638966
9.192906375,-8.679256666,2.942771491,-2.323817548,9.454603552
9.202986375,-8.777135548,2.82499395,-2.142324067,9.466163513
9.213067375,-8.82345836,2.646240474,-2.043937208,9.435766285
9.223147375,-8.755104994,2.554537714,-1.950236162,9.326357674
9.233227375,-8.604587722,2.574021513,-1.897446768,9.179587184
9.243307375,-8.411596861,2.639251297,-1.871464666,9.012379773
9.253388375,-8.164765424,2.791707505,-1.788502177,8.812250862
9.263468375,-7.895167267,2.95490534,-1.609713618,8.582325423
9.273548375,-7.373269941,2.918396495,-1.370424796,8.047372978
9.283629375,-6.678565173,2.794835181,-0.954368652,7.302407546
9.293709375,-5.88143005,2.476069249,-0.411026516,6.394613449
9.303789375,-4.275438477,1.678374841,0.085304444,4.593864726
9.313870375,-1.299661208,0.141233062,0.999160516,1.645414164
9.323950375,2.859941003,-2.429178673,2.721932973,4.635632716
9.334030375,7.399856061,-5.961308863,5.332206346,10.89621483
9.344110375,11.70242562,-9.709903854,8.087958738,17.2233584
9.354191375,15.60809202,-12.68893978,10.13333465,22.52345889
9.364271375,17.44733605,-13.43745705,11.12213624,24.67137414
9.374351375,19.23517486,-14.45240271,12.10011697,26.93096223
9.384432375,23.47104873,-17.02654468,14.13637591,32.25880463
9.394512375,27.07436731,-17.22752869,15.09181913,35.46226325
9.404592375,27.14481223,-14.63847866,13.94413232,33.84619203
9.414672375,24.38104623,-12.05419762,12.03446911,29.74168022
9.424753375,20.23069022,-9.638759027,10.4037064,24.7067523
9.434833375,15.84479199,-6.621941321,8.235294539,19.04540932
9.444913375,11.79868248,-3.489510713,5.574176409,13.50766582
9.454994375,8.304374129,-0.856162472,2.693224021,8.772063582
9.465074375,5.372574939,1.247739979,-0.296049791,5.523500883
9.475154375,2.74167405,2.943212371,-2.996315614,5.015693662
9.485235375,-0.142567981,4.108753654,-5.033651608,6.499217702
9.495315375,-3.378322983,4.869369991,-6.309424601,8.656365813
9.505395375,-6.311983927,5.674466683,-7.411584406,11.26819846
9.515475375,-8.191815813,6.665366253,-8.277159433,13.41805954
9.525559083,-8.994637937,7.572030834,-8.861571096,14.72299578
9.535639083,-9.056669294,8.038940359,-8.856147804,15.00263893
9.545719083,-9.18477945,8.241275071,-9.067580783,15.31338661
9.555800083,-9.606111099,8.380463362,-8.562020577,15.35635806
9.565880083,-9.566132516,8.169017519,-7.989228501,14.90206397
9.575960083,-9.325003282,7.666076281,-7.420570407,14.1700133
9.586040083,-9.062266248,7.174880345,-6.611246763,13.31586127
9.596121083,-8.835445152,6.784952338,-5.829112088,12.57295578
9.606201083,-8.554362479,6.46280233,-5.022019157,11.8391557
9.616281083,-8.24222115,6.26405547,-4.234046914,11.18480012
9.626362083,-7.940166854,6.169051664,-3.567078998,10.66899717
9.636442083,-7.681926913,6.072381402,-3.031888905,10.25076423
9.646522083,-7.441891694,6.049282562,-2.554457899,9.924758267
9.656602083,-7.204801717,6.104777316,-2.204949647,9.69738505
9.666683083,-6.946278187,6.180205228,-1.914117619,9.492605732
9.676763083,-6.724686255,6.125287009,-1.707995081,9.25514956
9.686843083,-6.68644605,6.026894742,-1.577725841,9.13899556
9.696924083,-6.697394376,6.010239533,-1.4828688,9.120140929
9.707004083,-6.559990656,5.957581848,-1.35416749,8.96437552
9.717084083,-6.357084087,5.764775174,-1.215408385,8.667316103
9.727164083,-6.22699991,5.666603347,-1.085418349,8.489054975
9.737245083,-6.173744055,5.566515387,-0.90207861,8.361516312
9.747325083,-5.84582343,5.149309534,-0.673814421,7.819403182
9.757405083,-4.396807963,4.154367491,-0.351435787,6.059224094
9.767486083,-1.39163791,2.206721646,0.330905336,2.629786082
9.777566083,2.304118717,-0.581647976,1.76526505,2.960310478
9.787646083,6.397525184,-4.165527487,4.163046513,8.695453065
9.797727083,10.86141942,-9.111296321,7.338163258,15.96354574
9.807807083,15.02477262,-13.7188508,10.48457222,22.88835761
9.817887083,17.25481296,-14.93426006,11.62700706,25.61148155
9.827967083,17.53658561,-15.44166039,11.74671945,26.15266962
9.838048083,19.56200732,-17.9744906,13.30264365,29.71051616
9.848128083,21.87999797,-18.56181535,13.91707141,31.88981306
9.858208083,21.50155681,-17.10343674,12.62633598,30.23687904
9.868289083,19.93715765,-15.54670211,10.92106687,27.54015075
9.878369083,17.62131293,-13.66741986,9.20800576,24.12667414
9.888449083,14.47991269,-11.05822618,6.862902739,19.46924939
9.898529083,10.83137292,-7.967775067,4.004555687,14.02998735
9.908610083,7.200067812,-4.834462114,1.273223022,8.765506106
9.918690083,3.800514173,-2.026967127,-1.058620998,4.435446103
9.928770083,0.694683133,0.312554727,-3.183293198,3.273168297
9.938851083,-1.923073214,2.218901688,-4.892896264,5.706327114
9.948931083,-4.249277449,3.629463235,-5.735251998,8.007651197
9.959011083,-6.433789616,4.805530383,-6.103355273,10.08651162
9.969091083,-7.896848926,5.884775827,-6.404939454,11.7479385
9.979172083,-8.727907255,6.752359958,-6.645745336,12.88164047
9.989252083,-9.372365144,7.483094684,-6.761059445,13.76771075
9.999332083,-9.807124924,8.135483737,-6.680515219,14.38732354
10.00941308,-9.766503732,8.418604749,-6.316589195,14.35816145
10.01949308,-9.528109242,8.230692195,-5.867677399,13.89096101
10.02957308,-9.249428605,7.780256615,-5.363273188,13.22304888
10.03965308,-8.969398431,7.335528502,-4.647210295,12.48425609
10.04973408,-8.74982145,6.81616419,-3.81243723,11.72834802
10.05981408,-8.507522188,6.37941051,-3.001775159,11.04922922
10.06989408,-8.229691152,6.075710222,-2.263484076,10.47689989
10.07997508,-8.04981735,5.816703712,-1.672297537,10.07125516
10.09005508,-7.876915183,5.602427816,-1.199284542,9.740188584
10.10013508,-7.623597429,5.42181668,-0.832928853,9.391970206
10.11021508,-7.476554573,5.250065246,-0.585423377,9.154494738
10.12029608,-7.488766483,5.112579664,-0.550815462,9.084244159
10.13037608,-7.600789779,4.913805322,-0.665924626,9.075293032
10.14045608,-7.665156514,4.633241882,-0.9288362,9.004681638
10.15053708,-7.628772215,4.428288495,-1.151749602,8.895753574
10.16061708,-7.545879747,4.284996628,-1.246102613,8.766656659
10.17069708,-7.424369343,4.104246328,-1.373835623,8.593807211
10.18077708,-7.185241612,3.818653113,-1.393223383,8.255354626
10.19085808,-6.963419884,3.411845363,-1.162061605,7.840936962
10.20093808,-6.456276253,2.883155619,-0.923337332,7.130823319
10.21101808,-5.233469678,1.917078064,-0.507210875,5.596575386
10.22109908,-2.860762537,0.299273946,0.30479781,2.892477985
10.23117908,0.418586966,-1.897876977,1.48891716,2.448270079
10.24125908,4.454931625,-4.815442583,3.165658288,7.283975251
10.25134008,9.192880182,-8.565143575,5.475328059,13.70583627
10.26142008,14.24821444,-12.3934636,8.132436168,20.56078969
10.27150008,17.50875403,-14.00645195,9.596802331,24.3892554
10.28158008,18.18883784,-13.95673775,9.759674184,24.91737528
10.29166108,18.40868262,-15.46164266,10.88042404,26.38798243
10.30174108,19.51566462,-16.99346581,12.42361769,28.70514453
10.31182108,20.19145306,-16.31408952,12.65672747,28.87969951
10.32190208,19.95650492,-15.04422046,12.12766672,27.77896611
10.33198208,18.61040103,-13.70725577,11.36249423,25.75542977
10.34206208,15.63235914,-11.79976188,10.45205468,22.20023603
10.35214208,11.7499436,-8.818143826,8.447558992,16.94644765
10.36222308,7.89086664,-5.15249919,5.766391929,11.04831662
10.37230308,4.468615279,-1.575647155,2.88848828,5.549283829
10.38238308,1.803732712,1.491117759,0.044183608,2.340691364
10.39246408,-0.198748614,3.830058107,-2.24075478,4.441827113
10.40254408,-2.160380123,5.340121137,-3.818930563,6.911466319
10.41262408,-4.480386894,6.327607688,-4.68461201,9.058591251
10.42270408,-6.702349892,6.999282027,-4.939478692,10.87703511
10.43278508,-8.053152017,7.567385806,-5.281132672,12.24781399
10.44286508,-8.240569897,7.935841668,-5.838507979,12.84417185
10.45294508,-8.010080257,7.823946426,-6.163583933,12.7814432
10.46302608,-8.093282043,7.47676098,-6.199443153,12.64263677
10.47310608,-8.159981232,7.059065714,-6.219339473,12.45374987
10.48318608,-8.129602607,6.716008987,-6.138907514,12.20169663
10.49326608,-7.997784732,6.497278683,-5.885216707,11.86654822
10.50334708,-7.738464811,6.308000219,-5.560930712,11.42797685
10.51342708,-7.42966809,6.070385163,-5.064160041,10.84874467
10.52350708,-7.162507052,5.871862836,-4.440764114,10.27135173
10.53358821,-6.976612957,5.699201574,-3.875251822,9.806712172
10.54366821,-6.771357561,5.584876814,-3.389422753,9.409055152
10.55374821,-6.611123972,5.574378138,-2.973199232,9.144428111
10.56382821,-6.473125589,5.671125584,-2.70761168,9.021872383
10.57390921,-6.270487407,5.733458072,-2.579540116,8.879503421
10.58398921,-6.152167245,5.736428457,-2.477502694,8.768910585
10.59406921,-6.278507448,5.791773523,-2.504291128,8.901447656
10.60415021,-6.559560885,5.837636744,-2.699880784,9.18668591
10.61423021,-6.675891826,5.788876812,-2.974046201,9.323281462
10.62431021,-6.495263733,5.707475384,-3.219952025,9.226690483
10.63439021,-6.105759063,5.506444602,-3.372644752,8.886841875
10.64447121,-5.271944942,5.139350556,-3.272090477,8.056854454
10.65455121,-3.696139619,4.05026571,-2.49204355,6.022987752
10.66463121,-1.698288703,2.243117639,-1.232582535,3.071647924
10.67471121,0.575948403,0.112681985,0.159690675,0.608206301
10.68479221,4.067347766,-2.800131004,2.01369424,5.332824391
10.69487221,8.39526208,-6.883219475,4.562541151,11.77607394
10.70495221,12.76068277,-11.20578417,7.451598072,18.5453751
10.71503321,16.51723349,-13.84355437,9.453979411,23.5338209
10.72511321,19.11554199,-14.54001038,10.7243677,26.30262174
10.73519321,20.41807243,-15.82479685,11.81833848,28.40765745
10.74527321,21.06991302,-17.52527241,12.14604451,29.97670437
10.75535421,20.24499953,-17.06400194,12.51449745,29.28571008
10.76543421,18.89067913,-15.52596437,11.63710052,27.08016684
10.77551421,17.12558014,-13.96335212,10.29574575,24.37751173
10.78559521,14.26217174,-11.73608453,8.806176914,20.46201297
10.79567521,10.66813503,-8.7397198,6.321749947,15.17090405
10.80575521,7.163368932,-5.446780198,3.265117965,9.572996621
10.81583621,4.15463734,-2.14893069,0.210261197,4.682213612
10.82591621,1.464964333,0.685718767,-2.328758883,2.835392153
10.83599621,-1.352446362,2.774197725,-4.2420155,5.245948883
10.84607621,-4.214691753,4.36312917,-5.39428565,8.117810075
10.85615721,-6.604573921,5.71305012,-5.75729717,10.45972318
10.86623721,-8.384380412,6.60570945,-5.675410423,12.08898324
10.87631721,-9.592611632,7.052465962,-5.911815691,13.29304475
10.88639721,-10.19256227,7.421793644,-6.191492693,14.04656286
10.89647821,-10.25766751,7.663129284,-6.193781294,14.2234391
10.90655821,-9.962024099,7.52986013,-5.99276396,13.85113488
10.91663821,-9.533277596,6.978656559,-5.904846979,13.20803721
10.92671921,-9.065376382,6.509353768,-5.66712258,12.51674933
10.93679921,-8.767553716,6.409702595,-5.361192749,12.11184021
10.94687921,-8.496043519,6.37544259,-4.932369647,11.71141725
10.95695921,-8.177395409,6.309146858,-4.371793282,11.21551186
10.96704021,-7.779687681,6.301871753,-3.801304424,10.70920367
10.97712021,-7.212531152,6.287556599,-3.272386054,10.11249149
10.98720021,-6.911290203,6.108604903,-2.687602508,9.607507136
10.99728121,-6.986922183,5.892469009,-2.22423815,9.406673586
11.00736121,-7.157478447,5.77122173,-1.814638647,9.371734705
11.01744121,-7.23217078,5.658942325,-1.469458211,9.299851066
11.02752121,-7.180260953,5.418847464,-1.228100205,9.07900244
11.03760221,-7.30871668,5.228843361,-1.055429442,9.048318833
11.04768221,-7.498938884,5.176213158,-0.944430578,9.16074321
11.05776221,-7.614548863,5.020568463,-0.870690318,9.162181165
11.06784321,-7.375031122,4.694701088,-0.834708745,8.782257173
11.07792321,-7.033218098,4.260431305,-0.619233001,8.246264683
11.08800321,-6.829317502,3.882452375,-0.536153423,7.874038003
11.09808321,-6.441191606,3.414853171,-0.4272923,7.302927508
11.10816421,-5.01421254,2.490728511,-0.080677689,5.599336104
11.11824421,-2.30478413,0.905397197,0.575758661,2.542296601
11.12832421,1.60868714,-1.247944924,1.553235655,2.560816637
11.13840421,6.653827942,-4.321956001,2.838204564,8.426632489
11.14848521,12.44918756,-8.441890701,4.696759016,15.75777062
11.15856521,17.84408132,-13.0297272,7.071283472,23.19888099
11.16864521,21.32625963,-15.73390072,9.201772628,28.05419043
11.17872621,22.67236351,-15.64387932,10.38445853,29.43813864
11.18880621,23.65673525,-16.27134637,11.50763265,30.93256285
11.19888621,24.54304685,-16.72788645,12.25657326,32.13108964
11.20896621,24.1026065,-15.56942906,12.11578517,31.14699041
11.21904721,22.95859174,-13.99840033,11.00674144,29.0551287
11.22912721,20.38204189,-12.28630986,9.924608935,25.78524586
11.23920721,15.81024898,-9.747074604,8.529685475,20.43832113
11.24928821,10.35543763,-6.471074971,5.902076569,13.56261065
11.25936821,5.290609254,-2.737790037,2.721563429,6.549270804
11.26944821,1.320710599,0.683943845,-0.071321998,1.489007219
11.27952821,-0.965497511,2.984984879,-2.373981249,3.934222559
11.28960921,-2.374987555,4.37298933,-4.413548541,6.651542099
11.29968921,-4.055177372,5.365431395,-6.282297029,9.203237122
11.30976921,-6.192551039,6.303002604,-7.629406638,11.67404711
11.31985021,-8.497748567,7.664969988,-9.034687856,14.58043485
11.32993021,-9.365369536,8.680198653,-11.94451087,17.48506034
11.34001021,-9.020983737,8.316938041,-12.81655409,17.74298917
11.35009021,-8.604821026,7.029451321,-10.40940743,15.22537007
11.36017121,-8.7193902,6.049640411,-8.123075945,13.36451561
11.37025121,-8.900855615,5.790109406,-6.900674583,12.66372407
11.38033121,-9.293504916,5.735892853,-6.064921525,12.49211646
11.39041221,-9.282869416,5.569705043,-5.589843439,12.18358028
11.40049221,-8.944714994,5.310332497,-5.163041135,11.61311979
11.41057221,-8.530222834,5.259682161,-4.696475718,11.06733221
11.42065221,-8.153685535,5.310192749,-4.189467742,10.59397823
11.43073321,-7.900479462,5.290230939,-3.681314296,10.19589104
11.44081321,-7.645052617,5.217462341,-3.167942795,9.782873011
11.45089321,-7.346730598,5.220904012,-2.760045709,9.426035301
11.46097321,-7.157225847,5.146515149,-2.437708299,9.146306455
11.47105421,-7.028830347,4.967972174,-2.233105452,8.89224176
11.48113421,-7.055664389,4.878299859,-2.059271531,8.821610325
11.49121421,-7.257355322,4.913943901,-1.974812887,8.984204855
11.50129521,-7.464678878,4.952982836,-1.897124441,9.157103848
11.51137521,-7.55959673,4.803575659,-1.716715618,9.119701439
11.52145521,-7.499093835,4.444311327,-1.706843179,8.882658677
11.53153121,-7.318342366,4.324442237,-1.73784424,8.676349362
11.54161221,-7.170358694,4.266587254,-1.831240061,8.542321157
11.55169221,-6.763945631,3.8650113,-1.925567344,8.024779277
11.56177221,-5.545416879,3.148841988,-1.717485112,6.604287194
11.57185221,-2.94880991,1.868849937,-0.862153237,3.59602394
11.58193321,0.276684982,0.059037728,0.559785237,0.627215708
11.59201321,3.946108673,-1.864306797,1.905200323,4.762058563
11.60209321,8.828800961,-4.939516699,3.842991271,10.82197457
11.61217421,14.56740926,-9.519606805,7.081063524,18.78759662
11.62225421,18.84797341,-13.78216913,10.2861797,25.51469734
11.63233421,19.55894104,-14.88007976,11.55879695,27.15832718
11.64241421,20.14790534,-14.77972166,12.49252946,27.93638406
11.65249521,22.6098521,-16.46592066,14.55993652,31.5328988
11.66257521,23.67540892,-16.72492893,14.72532384,32.51281897
11.67265521,22.68762709,-15.11688732,12.9933505,30.20059374
11.68273621,20.88284421,-13.50072393,11.09879182,27.23134056
11.69281621,18.15951054,-11.48322286,9.79345121,23.61236788
11.70289621,14.21592377,-8.372565528,7.842624772,18.26743292
11.71297621,9.812420747,-4.997053885,4.967866924,12.08030837
11.72305721,5.753357316,-1.760192883,2.064462397,6.36092795
11.73313721,2.591654377,1.028587798,-0.629308923,2.858442756
11.74321721,0.077253413,2.981146475,-2.79127715,4.084657944
11.75329821,-2.617342365,4.319736106,-4.063431886,6.482443966
11.76337821,-5.37929105,5.169229828,-4.870138316,8.909318517
11.77345821,-7.424188664,5.669177291,-5.193756559,10.68799587
11.78353821,-8.868245108,6.029323091,-5.348910672,11.98371201
11.79361921,-9.922370621,6.161379533,-5.623436862,12.9629888
11.80369921,-10.67232164,6.245444952,-5.875930744,13.69052935
11.81377921,-11.09208506,6.328749649,-6.047398589,14.13005495
11.82385921,-11.20583563,6.263471333,-6.302267025,14.30106272
11.83394021,-11.0377504,5.92443866,-6.334046642,14.03748746
11.84402021,-10.7266563,5.614039217,-6.035492488,13.5279622
11.85410021,-10.37761261,5.316376179,-5.410508165,12.85427158
11.86418121,-9.791659623,5.025942639,-4.573333941,11.91856035
11.87426121,-9.172761667,4.660976395,-3.765746336,10.95650962
11.88434121,-8.55002326,4.364917248,-2.980491294,10.05180226
11.89442121,-8.004834135,4.185334345,-2.218675693,9.301446928
11.90450221,-7.637474041,4.136297548,-1.576895244,8.827602491
11.91458221,-7.455353154,4.198547591,-1.107068104,8.627612202
11.92466221,-7.477822834,4.291237653,-0.826807988,8.661187354
11.93474221,-7.548221557,4.411861912,-0.741577803,8.774400939
11.94482321,-7.660683394,4.583442315,-0.776509215,8.960858223
11.95490321,-7.659266614,4.798326029,-0.913447936,9.084199738
11.96498321,-7.534300506,4.927758533,-1.123194871,9.072488908
11.97506421,-7.793225155,5.067418109,-1.400027203,9.400700015
11.98514421,-7.976846437,5.170248413,-1.735036114,9.662913539
11.99522421,-7.77169863,5.051555198,-1.915982881,9.465120175
12.00530421,-7.263764455,4.653441673,-1.867117992,8.826263256
12.01538521,-6.238935247,3.931851992,-1.667502235,7.560710073
12.02546521,-4.289548393,2.63284041,-1.081922299,5.148070503
12.03554521,-1.687704073,1.099908919,-0.193168616,2.023723989
12.04562621,1.403787255,-0.427376793,0.666636379,1.611730015
12.05570621,5.962314,-2.821697289,2.157152752,6.940062811
12.06578621,11.45833711,-6.327251592,4.77471965,13.93289452
12.07586621,16.82836617,-9.794814781,7.515463116,20.8713797
12.08594721,20.64166294,-12.06640193,9.366343682,25.6788765
12.09602721,22.85613916,-13.14711707,10.23713793,28.28513351
12.10610721,25.56845434,-14.75555161,11.44287707,31.66088433
12.11618821,27.31167773,-15.79111221,12.37207448,33.88738987
12.12626821,25.92133615,-14.79303226,11.60835093,32.02348018
12.13634821,23.20913791,-13.32509579,10.13601619,28.61749613
12.14642821,20.56246357,-12.0921402,8.629709115,25.36743271
12.15650921,17.91872922,-10.24569007,6.963360243,21.78401725
12.16658921,14.17245557,-7.361926342,4.726802302,16.65530295
12.17666921,9.176440151,-3.929323656,2.203071521,10.22253209
12.18674921,3.928367636,-0.539043117,-0.486924545,3.994963739
12.19683021,-0.325588755,2.443086421,-2.676576998,3.638508448
12.20691021,-3.272311794,4.53085392,-3.966272212,6.853318683
12.21699021,-5.365293401,5.481267661,-4.438004813,8.861521041
12.22707121,-7.091800767,5.544790642,-4.55778181,10.09017921
12.23715121,-8.773784509,5.575763344,-4.737506508,11.42420235
12.24723121,-10.06970525,5.718815475,-4.914601713,12.58002879
12.25731121,-10.81257061,5.582255507,-5.085925131,13.18862746
12.26739221,-11.18763675,5.209319508,-5.317830967,13.43798914
12.27747221,-11.40091745,4.895107096,-5.373884715,13.52115487
12.28755221,-11.5986352,4.75767297,-5.21095322,13.57637006
12.29763221,-11.73588222,4.490016673,-4.871753609,13.47683807
12.30771321,-11.55655045,4.17325429,-4.32762283,13.02682728
12.31779321,-11.00661163,3.947495048,-3.66423838,12.2537692
12.32787321,-10.52888476,3.834575081,-2.934104748,11.58319261
12.33795421,-10.16498797,3.866878024,-2.207681758,11.09745849
12.34803421,-9.671782347,3.931837374,-1.560959242,10.55648202
12.35811421,-9.129670027,3.959538558,-1.040440251,10.00556527
12.36819421,-8.694521407,3.959367235,-0.810281564,9.587901106
12.37827521,-8.334365083,4.129611257,-0.742767127,9.330971733
12.38835521,-8.185432407,4.446121041,-0.685717744,9.340209035
12.39843521,-8.05854315,4.73327517,-0.707237836,9.372523507
12.40851521,-7.907751644,4.951704635,-0.894947931,9.372984939
12.41859621,-7.784574784,5.200210716,-1.153639568,9.43253308
12.42867621,-7.694944569,5.448839003,-1.359036613,9.526226898
12.43875621,-7.618751256,5.540878855,-1.436912608,9.52950298
12.44883621,-7.571930262,5.406038554,-1.424740167,9.412187061
12.45891721,-7.380286599,5.149511847,-1.466023556,9.117857623
12.46899721,-6.823368545,4.796765407,-1.446971866,8.465284652
12.47907721,-5.793470385,4.242572155,-1.20688066,7.28150249
12.48915821,-4.059871516,3.195239645,-0.850651471,5.236002391
12.49923821,-1.770647412,1.628752884,-0.182381819,2.412735241
12.50931821,1.078990213,-0.557907842,1.164111493,1.682449586
12.51939821,4.968953336,-3.560020824,3.551364314,7.069401249
12.52947921,10.45857784,-6.957735221,6.109863224,13.96862049
12.53955921,16.24909655,-9.375258932,8.289426892,20.50958841
12.54963921,19.68062393,-9.912792882,9.94209094,24.17510276
12.55971921,20.81920312,-9.124458404,11.24690413,25.36114769
12.56980021,23.53839229,-8.947887109,13.96529691,28.7949668
12.57988021,27.12694548,-9.211324639,16.23228113,32.92729298
12.58996021,28.77738057,-8.705416524,15.70221232,33.91874674
12.60004121,28.23244112,-7.590765898,13.29044519,32.11427084
12.61012121,25.02795176,-6.445897445,10.36139945,27.84432728
12.62020121,20.6082005,-4.997279003,7.638374512,22.53919897
12.63028121,15.87901458,-3.183777348,5.197811018,17.00872663
12.64036221,11.30952547,-1.618046485,3.028613002,11.8193036
12.65044221,7.023569607,-0.845672567,1.255534025,7.184849185
12.66052221,2.078689842,-0.631908596,-0.927902253,2.362469582
12.67060321,-2.072370756,-0.375275762,-2.504456019,3.272285501
12.68068321,-4.906772291,-0.302061386,-4.045569519,6.366654391
12.69076321,-7.458320031,-0.668900567,-6.130713226,9.677789536
12.70084321,-9.179936786,-1.286790171,-8.563980564,12.62017557
12.71092421,-10.05366634,-1.812341276,-9.965374553,14.27128157
12.72100421,-10.69596427,-2.065824067,-10.4225929,15.0765289
12.73108421,-10.89953157,-2.02462941,-9.719504398,14.7433944
12.74116421,-10.99190004,-1.941547346,-8.613111209,14.09883532
12.75124521,-11.04953137,-1.93647474,-7.536789665,13.51463193
12.76132521,-11.17421622,-1.851207426,-6.538444836,13.07827733
12.77140521,-11.10908292,-1.7513516,-5.660198307,12.59034553
12.78148521,-10.74990016,-1.530220722,-4.795202739,11.8699578
12.79156621,-10.22044296,-1.036236834,-4.083755053,11.05478613
12.80164621,-9.607115065,-0.487514529,-3.631789257,10.28222853
12.81172621,-9.080087977,-0.090070364,-3.477672732,9.72369878
12.82180721,-8.723151129,0.2683106,-3.394881713,9.364324752
12.83188721,-8.755787948,0.584005135,-3.286464687,9.370471425
12.84196721,-9.024011425,0.734055287,-3.204257513,9.604107745
12.85204721,-9.156253808,0.805982764,-3.139579122,9.713060747
12.86212821,-9.250715577,1.034823196,-3.197550757,9.842303012
12.87220821,-9.248117074,1.234299862,-3.374964343,9.921771509
12.88228821,-9.15499958,1.310872074,-3.510839309,9.892340247
12.89236821,-9.151397111,1.436671411,-3.568788724,9.927151997
12.90244921,-9.073768891,1.499120259,-3.497655007,9.839422442
12.91252921,-8.990877593,1.502982052,-3.265060077,9.682739914
12.92260921,-8.836802291,1.510102791,-3.009880277,9.456683586
12.93269021,-8.444295661,1.40329755,-2.745038538,8.989472165
12.94277021,-7.924364753,1.241913814,-2.407644255,8.374643725
12.95285021,-7.114804882,0.990501667,-2.081294192,7.478858708
12.96293021,-5.915309987,0.540806344,-1.636545614,6.16130224
12.97301121,-3.704020497,-0.272672623,-0.96014804,3.836144217
12.98309121,-0.640606329,-1.350606536,-0.042363808,1.495429429
12.99317121,3.383795977,-2.598663142,1.011650607,4.384810406
13.00325121,8.396454912,-4.320773986,2.464879725,9.759363452
13.01333221,13.88509065,-6.472495844,4.600268848,15.99535615
13.02341221,18.69431092,-8.521188301,7.722912387,21.94837776
13.03349221,21.21080752,-9.503413526,10.77050808,25.61673416
13.04357321,22.89961906,-9.850380871,12.89216093,28.06475316
13.05365321,25.98964332,-11.57901662,14.93050498,32.13184036
13.06373321,28.6683604,-12.91012825,15.65551879,35.12323402
13.07381321,29.09165437,-11.93747901,13.93231627,34.39385404
13.08389421,27.05153511,-10.89886031,11.26118303,31.26315645
13.09397421,23.51935843,-10.14574712,8.861224941,27.10383207
13.10405421,18.84575263,-8.133243669,6.702586119,21.59251504
13.11413421,13.62641685,-5.143271114,4.270781754,15.17801208
13.12421521,8.065220085,-2.135870056,1.776370667,8.530252556
13.13429521,2.862891508,0.594051675,-0.543952146,2.974042555
13.14437521,-0.768995982,2.668846979,-2.261772012,3.581858687
13.15445621,-2.999958429,3.935412946,-3.409236335,6.009169496
13.16453621,-4.703862798,4.565683444,-3.998506157,7.678531242
13.17461621,-6.503938662,4.97390125,-4.286453754,9.242001815
13.18469621,-8.342461138,5.454316674,-4.681269157,11.01183496
13.19477721,-9.942540007,6.055363081,-4.92967525,12.64212094
13.20485721,-11.20019657,6.761181067,-5.002498813,14.00653301
13.21493721,-12.11054607,7.344577069,-4.934661756,14.99863411
13.22501721,-12.84650353,7.582536526,-4.647088965,15.62443435
13.23509821,-13.22265491,7.398465593,-4.575045714,15.82741101
13.24517821,-12.83399282,6.872294537,-4.996905366,15.39184418
13.25525821,-12.06596807,6.277155572,-5.310050662,14.60092139
13.26533821,-11.4809366,5.876934711,-5.337209809,13.95836936
13.27541921,-10.81969837,5.514638305,-5.213044184,13.21563234
13.28549921,-9.965397942,5.2698072,-4.642935688,12.1916724
13.29557921,-9.044943872,5.231258261,-3.785465486,11.1133623
13.30565921,-8.475823263,5.272965281,-2.807812783,10.36954943
13.31574021,-8.076827978,5.416867597,-1.828870039,9.895573271
13.32582021,-7.649133389,5.507954353,-1.059675105,9.485236638
13.33590021,-7.271317304,5.538142943,-0.435471386,9.150558339
13.34598121,-7.192082854,5.487699598,-0.021872095,9.046622632
13.35606121,-7.172989941,5.394592044,0.292064036,8.979905869
13.36614121,-6.922826759,5.29794751,0.498785037,8.731698842
13.37622121,-6.771910123,5.178207058,0.491208215,8.538962499
13.38630221,-6.546291799,5.08602278,0.329799189,8.296404736
13.39638221,-6.305767168,4.942293541,0.139540001,8.013016688
13.40646221,-6.248616482,4.648958905,0.009910738,7.788332624
13.41654221,-5.704644163,4.182756893,-0.081295009,7.074251135
13.42662321,-4.084338605,3.324883525,0.085443023,5.26725477
13.43670321,-1.694873929,1.894326256,0.313706043,2.561148391
13.44678321,1.459046951,-0.038235236,0.837320697,1.682672246
13.45686321,4.859417446,-2.119268349,1.947390615,5.647793061
13.46694421,7.872177769,-4.378510855,3.73900965,9.753088398
13.47702421,11.21741545,-7.006308042,5.758176591,14.42481748
13.48710421,14.75058382,-9.384121556,7.075383539,18.86007721
13.49718521,17.49958443,-10.97441336,7.534599298,21.98734614
13.50726521,20.17443299,-12.86990642,8.161135472,25.28332197
13.51734521,23.13232655,-14.85769077,8.907929576,28.89994318
13.52742521,24.8934354,-15.53676184,8.880910177,30.65851692
13.53750733,24.60802345,-14.8281635,8.36011856,29.92191226
13.54758733,22.97470199,-13.43515325,7.433040179,27.63313881
13.55766733,20.68090477,-11.43977688,6.418236022,24.49004024
13.56774733,17.9530933,-8.95892139,5.209546965,20.72957335
13.57782833,15.03040115,-5.959833026,3.691100489,16.58483618
13.58790833,11.5226214,-2.595800053,1.898120221,11.96293619
13.59798833,7.676445149,0.532247483,0.007473473,7.694878385
13.60806933,4.110397307,2.862987403,-1.287284406,5.171959399
13.61814933,0.807624443,4.426144905,-1.890296062,4.880188026
13.62822933,-2.111268189,5.493611133,-2.31538177,6.324413758
13.63830933,-4.398229421,6.166647874,-2.793821273,8.073252464
13.64839033,-6.207169663,6.706341786,-3.452128586,9.768375871
13.65847033,-7.726164608,7.22346603,-4.148129097,11.36129641
13.66855033,-9.223028426,7.586790376,-4.72821879,12.84444216
13.67863033,-10.52987879,7.689492041,-5.321953254,14.0829621
13.68871133,-11.16488173,7.448438237,-5.703152538,14.5828586
13.69879133,-11.14379199,7.002202127,-5.704453543,14.34418784
13.70887133,-11.14916441,6.478482808,-5.301199731,13.94192688
13.71895133,-11.09995191,5.983154646,-4.870363141,13.51767395
13.72903233,-10.77238621,5.460840998,-4.411194452,12.8578274
13.73911233,-10.42185849,4.858730983,-3.689093724,12.07608437
13.74919233,-10.16812091,4.212332402,-3.047616161,11.42026231
13.75927333,-9.940596392,3.683632425,-2.507387813,10.89364944
13.76935333,-9.780247613,3.427736049,-1.960468351,10.54732449
13.77943333,-9.581091447,3.290211291,-1.581463819,10.25299134
13.78951333,-9.239995292,3.156373202,-1.336440925,9.855266568
13.79959433,-9.016415892,3.128978412,-1.145599939,9.612422205
13.80967433,-8.867297859,3.232006644,-0.987853171,9.489504316
13.81975433,-8.78812539,3.395029063,-0.839923146,9.458479851
13.82983433,-8.66552448,3.515647474,-0.809369252,9.386488708
13.83991533,-8.512452561,3.646490619,-0.754337012,9.291273689
13.84999533,-8.458544741,3.715628097,-0.706645221,9.265647239
13.86007533,-8.369992753,3.697680945,-0.68192217,9.175763777
13.87015533,-8.179460646,3.597356466,-0.67888688,8.961330113
13.88023633,-7.898499595,3.22547472,-0.709164932,8.561127141
13.89031633,-7.360388525,2.639915833,-0.57736109,7.840779341
13.90039633,-6.672848935,2.188526865,-0.295287022,7.028780631
13.91047633,-5.695827146,1.431024608,-0.196608095,5.876132491
13.92055733,-3.99512939,0.237162044,-0.055602489,4.002548728
13.93063733,-1.550236033,-1.108137121,0.222205889,1.918482498
13.94071733,1.456409272,-2.716623994,0.835141439,3.193530196
13.95079733,5.13581416,-4.847178931,2.203440188,7.397761779
13.96087833,9.330849913,-7.519542718,4.044707347,12.64784331
13.97095833,13.33483725,-10.04609186,5.590126444,17.60657149
13.98103833,15.88234983,-11.51513462,6.316772797,20.6094391
13.99111933,17.24948732,-12.14798228,6.703249193,22.13711445
14.00119933,19.53727359,-12.93172085,7.320641491,24.54641023
14.01127933,22.7096056,-14.25687533,8.104384151,28.01188539
14.02135933,25.06815488,-14.93440273,8.598055798,30.41998254
14.03144033,26.16913413,-14.3477551,8.630856339,31.06723899
14.04152033,25.63287663,-12.95081084,8.525442735,29.9574872
14.05160033,23.55083516,-11.1742478,8.104764805,27.29822088
14.06168033,20.81141931,-8.861467016,7.02338425,23.68477776
14.07176133,17.53481741,-6.156236322,5.255132443,19.31283211
14.08184133,13.74009841,-3.547590813,3.209134383,14.54902912
14.09192133,9.389056606,-1.125335244,1.030150028,9.512201241
14.10200233,4.818905597,1.003394193,-1.272747059,5.084145566
14.11208233,0.595868112,2.879003219,-3.176409856,4.328197999
14.12216233,-2.650542855,4.524941508,-4.467266911,6.888900256
14.13224233,-4.860067071,5.532150131,-5.391638616,9.12659323
14.14232333,-6.487243692,5.957006482,-6.223591568,10.78440304
14.15240333,-7.919022737,6.117905484,-6.861970693,12.13368577
14.16248333,-9.171299279,6.220407175,-7.242320377,13.2384818
14.17256333,-10.25143204,6.122245288,-7.138387288,13.9115175
14.18264433,-10.97491505,5.858442891,-6.701814287,14.13097407
14.19272433,-11.337688,5.544411743,-6.176341388,14.05100935
14.20280433,-11.48634995,5.164195375,-5.524705456,13.75236414
14.21288433,-11.247904,4.700861422,-4.76721124,13.08968088
14.22296533,-10.81452826,4.277079206,-3.862425954,12.25421406
14.23304533,-10.40140025,4.084405848,-2.989150436,11.56747677
14.24312533,-9.962841539,4.004255725,-2.170189704,10.95454238
14.25320533,-9.479351649,3.82589489,-1.535242603,10.33695067
14.26328633,-9.203910955,3.784611208,-1.046638299,10.0065334
14.27336633,-9.010638843,3.983271822,-0.711006221,9.877428643
14.28344633,-8.846577666,4.23432378,-0.632248026,9.828080781
14.29352633,-8.773117341,4.570396008,-0.666645442,9.914662057
14.30360733,-8.726707991,4.723890389,-0.842445197,9.958929996
14.31368733,-8.468714218,4.786320233,-1.098703077,9.789541886
14.32376733,-8.220084177,5.088262264,-1.317700599,9.756870994
14.33384833,-8.301308434,5.349657362,-1.595732049,10.00384508
14.34392833,-8.483777815,5.410031033,-1.88387772,10.23679232
14.35400833,-8.68429989,5.379561192,-2.189769398,10.44757547
14.36408833,-8.744268934,5.282200373,-2.452607589,10.50614886
14.37416933,-8.573340202,5.206180723,-2.608121306,10.36382056
14.38424933,-8.446590108,5.054836071,-2.58253389,10.17672508
14.39432933,-8.329141765,4.66455226,-2.398546864,9.843052239
14.40440933,-7.970013381,4.063966906,-2.075384996,9.183907839
14.41449033,-7.234869854,3.346115642,-1.485061944,8.108343893
14.42457033,-6.030037036,2.431471074,-0.600677447,6.529487854
14.43465033,-4.203573273,1.406901482,0.157298726,4.43555441
14.44473033,-1.60713295,0.258695146,0.576460765,1.726877677
14.45481133,1.638029053,-1.405629712,1.158900601,2.449894828
14.46489133,5.460978407,-3.616895229,2.319334341,6.948634977
14.47497133,9.549132321,-6.22161404,4.042283092,12.09274419
14.48505133,13.57038532,-9.080577389,5.923349324,17.36946489
14.49513233,17.32499358,-11.2353091,7.349760625,21.91817863
14.50521233,20.79868407,-12.84968792,8.34564787,25.83311009
14.51529233,24.87753565,-14.69516624,9.642392487,30.46006277
14.52537233,28.44255029,-16.12204942,10.51682078,34.3438883
14.53545596,29.68143963,-16.03616317,9.976157988,35.18053604
14.54553596,28.42742237,-14.52399485,8.643514391,33.07227102
14.55561596,25.09933457,-12.44986935,7.147289674,28.91469509
14.56569696,20.89197289,-10.21110613,5.428108284,23.87897776
14.57577696,16.93084447,-7.450848459,3.49951296,18.82591905
14.58585696,13.32848717,-4.418565744,1.430448804,14.11447758
14.59593696,9.740873632,-1.774373842,-0.21513339,9.903499584
14.60601796,6.109213014,0.469868801,-1.642917325,6.343692747
14.61609796,2.657486424,2.610993166,-2.956939002,4.756364963
14.62617796,-0.624068649,4.507927572,-3.959441202,6.0322506
14.63625796,-3.361067265,6.036610476,-4.660313613,8.334024368
14.64633896,-5.370450645,7.083520525,-5.336569539,10.36807492
14.65641896,-6.896754025,7.524989984,-5.898226762,11.78896812
14.66649896,-7.862587166,7.431773672,-6.272746772,12.50595414
14.67657896,-8.544236856,7.117237909,-6.429017118,12.84489471
14.68665996,-9.187993664,6.941634328,-6.482247831,13.21457724
14.69673996,-9.498760312,6.72168371,-6.382665655,13.27199684
14.70681996,-9.311281621,6.352982265,-6.071743471,12.80337525
14.71689996,-8.801651169,5.95423841,-5.502205371,11.9664649
14.72698096,-8.25822381,5.638455436,-4.737166492,11.0648627
14.73706096,-7.708478535,5.437536335,-3.958526697,10.23021878
14.74714096,-7.134762599,5.430069441,-3.155749597,9.50522209
14.75722196,-6.800627553,5.593572793,-2.544797422,9.165837967
14.76730196,-6.685441498,5.804255574,-2.114477433,9.102501064
14.77738196,-6.688918837,5.971073129,-1.787725959,9.142828535
14.78746196,-6.765203367,6.133100059,-1.596558845,9.269945689
14.79754296,-6.792914491,6.227920847,-1.542683769,9.34401191
14.80762296,-6.970173419,6.253287823,-1.512885189,9.485554684
14.81770296,-7.301488352,6.256348255,-1.626614995,9.751897353
14.82778296,-7.248569296,6.253356235,-1.84653053,9.749661329
14.83786396,-7.191164256,6.114529887,-2.010161937,9.650962134
14.84794396,-7.690756209,5.978145921,-2.146586249,9.9746575
14.85802396,-8.122913393,5.939668903,-2.276261412,10.3171098
14.86810396,-8.319763416,5.724468563,-2.40300712,10.38086927
14.87818496,-8.304893362,5.340175517,-2.496036321,10.1842489
14.88826496,-8.084704762,4.673605504,-2.31648704,9.621390321
14.89834496,-7.930154082,3.966724494,-1.801770679,9.048128234
14.90842496,-7.516317979,3.384366665,-1.394615605,8.36025875
14.91850596,-6.374542118,2.681423171,-0.784977007,6.959957352
14.92858596,-4.141422048,1.388906383,-0.022426557,4.368173586
14.93866596,-0.995380291,-0.377100971,0.910537192,1.400737322
14.94874596,2.367314839,-2.25486528,2.012897556,3.839316808
14.95882696,5.986711507,-4.574854802,3.323291621,8.234942521
14.96890696,9.648748995,-7.589697611,5.566171571,13.47902567
14.97898696,13.1254929,-10.743515,8.181382626,18.83180023
14.98906696,15.91800849,-12.5582089,9.411231587,22.35314038
14.99914796,18.52955509,-13.51528583,9.84700352,24.95938383
15.00922796,21.86628975,-15.165611,10.71446486,28.686759
15.01930796,24.94571886,-16.87339909,11.30054181,32.16679548
15.02938796,26.47005524,-16.92189121,10.67547679,33.18101914
15.03946896,25.85778393,-15.34507608,9.202457337,31.44489737
15.04954896,23.06411527,-13.28752626,7.823490928,27.74380611
15.05962896,18.84203264,-10.80081537,6.303349929,22.61442077
15.06970996,14.65449886,-7.569495481,3.916512699,16.9526007
15.07978996,10.59639905,-4.095750324,1.229167614,11.42670979
15.08986996,6.486067232,-1.092766253,-1.061115274,6.662519932
15.09994996,2.642557898,1.097031504,-2.635944112,3.890345965
15.11003096,-0.909256652,2.819783203,-3.616149709,4.674875794
15.12011096,-3.963894734,4.306210911,-4.412828456,7.330004697
15.13019096,-6.155508928,5.34917789,-5.218096179,9.681555763
15.14027096,-7.214699884,5.781457865,-5.922179296,10.97949712
15.15035196,-7.702202718,5.693806933,-6.502349389,11.57686968
15.16043196,-8.589407181,5.618869017,-6.919863975,12.37877709
15.17051196,-9.550205285,5.666641939,-6.994731724,13.12415802
15.18059196,-10.23722096,5.492979634,-6.777522866,13.4502169
15.19067296,-10.36823134,5.114232087,-6.304983641,13.16846269
15.20075296,-9.750164273,4.718918209,-5.641062709,12.2129227
15.21083296,-8.825353442,4.358001162,-4.805363445,10.95310711
15.22091296,-8.190863886,4.173741948,-3.929091522,9.997406325
15.23099396,-7.858407576,4.28523461,-3.102827325,9.473401855
15.24107396,-7.701448427,4.438157425,-2.398108031,9.206545027
15.25115396,-7.473857837,4.657935258,-1.787963941,8.986196464
15.26123396,-7.229944745,4.824384145,-1.17620105,8.770988103
15.27131496,-7.346072786,4.938591084,-0.70757756,8.880041289
15.28139496,-7.718114746,5.142246097,-0.555587959,9.290891676
15.29147496,-8.058936083,5.250779775,-0.620347481,9.638566804
15.30155496,-8.237115362,5.30171604,-0.695702742,9.820502266
15.31163596,-8.381995332,5.239742571,-0.856866038,9.922044516
15.32171596,-8.676133084,5.11111786,-1.096492683,10.12922047
15.33179596,-8.992410733,4.968162208,-1.413196156,10.37030423
15.34187596,-9.094416579,4.684390108,-1.65562274,10.36305989
15.35195696,-9.01952778,4.405112471,-1.764681498,10.19171222
15.36203696,-8.999905694,4.111174402,-1.778419092,10.05300114
15.37211696,-8.887529225,3.630562511,-1.851715549,9.777423503
15.38219696,-8.596862966,3.044535263,-1.805541841,9.297054865
15.39227796,-8.117043373,2.298185839,-1.423900946,8.555439508
15.40235796,-7.578355767,1.434819305,-0.774077797,7.751733936
15.41243796,-6.16797987,0.555794074,-0.471934769,6.210926272
15.42251796,-3.659370573,-0.809386793,-0.195002888,3.752882372
15.43259896,-0.846014922,-2.381981117,0.400326111,2.559264794
15.44267896,2.946801392,-4.361884298,1.442335755,5.458022123
15.45275896,7.413631516,-7.006546608,3.345787321,10.73535842
15.46283896,12.26199714,-9.99795173,5.658732995,16.80288284
15.47291996,16.43601098,-12.26104287,7.686556739,21.89883065
15.48299996,19.77652295,-13.35302092,8.790756637,25.43012839
15.49307996,23.7763038,-14.55773563,9.893946136,29.58260399
15.50316096,28.12686847,-15.8778884,11.21313997,34.19009473
15.51324096,30.45987477,-16.02523239,11.25945693,36.21308347
15.52332096,29.37712012,-14.34137929,9.68559464,34.09547023
15.53339758,25.78053753,-11.94015236,8.175096869,29.56409245
15.54347858,21.07189639,-9.643714542,6.884193621,24.17474239
15.55355858,16.39035241,-7.048336658,4.47056708,18.39316917
15.56363858,12.01514407,-4.010724207,1.575215192,12.76443882
15.57371858,7.624894341,-1.063999121,-1.088404084,7.775328372
15.58379958,3.517858599,1.213992189,-3.024887449,4.795732502
15.59387958,0.079633815,2.647796418,-4.101308979,4.882407476
15.60395958,-2.62491334,3.523569867,-4.75729407,6.475921673
15.61403958,-4.911130806,4.245264213,-5.362612453,8.42015952
15.62412058,-6.572976737,5.069050652,-5.989337491,10.23579314
15.63420058,-7.738189407,5.867371005,-6.439102396,11.65193793
15.64428058,-8.832274207,6.435154356,-6.717019386,12.82726115
15.65436058,-9.518199381,6.705623163,-6.992733731,13.58159882
15.66444158,-9.57656044,6.80972816,-7.1649699,13.762983
15.67452158,-9.470996563,6.813235905,-7.271893255,13.7477413
15.68460158,-9.385664636,6.612899771,-7.129197804,13.51468111
15.69468158,-9.258450274,6.293754063,-6.539436523,12.96512521
15.70476258,-9.167046014,5.935689288,-5.68573953,12.31238295
15.71484258,-8.829680382,5.469436405,-4.542010115,11.33613012
15.72492258,-8.487315381,5.096030874,-3.278648422,10.42849886
15.73500258,-8.269850414,4.787694037,-2.105422143,9.784949793
15.74508358,-8.398801984,4.622094165,-1.000863299,9.638742479
15.75516358,-8.625914857,4.603429853,-0.203487782,9.779538885
15.76524358,-8.765736986,4.657254058,0.222521127,9.928629105
15.77532358,-9.014998527,4.684171715,0.280507307,10.16318589
15.78540458,-9.252765611,4.731763372,0.032659623,10.39251282
15.79548458,-9.428712423,4.838359868,-0.276651726,10.60126786
15.80556458,-9.486957123,4.788224671,-0.697871108,10.64971713
15.81564458,-9.378270248,4.636099416,-1.147803755,10.52439186
15.82572558,-9.309252053,4.52866443,-1.564235437,10.46985233
15.83580558,-9.160763181,4.353235681,-1.924690554,10.32350118
15.84588558,-8.812007757,4.054216674,-2.022868813,9.908589798
15.85596558,-8.585533401,3.751281202,-2.026244996,9.585883538
15.86604658,-8.347248838,3.40672174,-1.938280653,9.221672737
15.87612658,-7.842972681,2.929684837,-1.5536549,8.515228551
15.88620658,-6.933428346,2.287649741,-1.111662115,7.38522597
15.89628658,-5.027602079,1.58015609,-0.76548524,5.325377319
15.90636758,-2.119976447,0.763301378,-0.45965547,2.299611333
15.91644758,1.898023742,-0.614014654,0.051322181,1.995530528
15.92652758,7.656469306,-2.534806577,1.183951169,8.151595364
15.93660758,15.04871463,-4.941239288,2.861224467,16.0955355
15.94668858,22.33055868,-7.901541317,5.298923995,24.27275842
15.95676858,26.56583731,-9.409103785,7.645781765,29.20159113
15.96684858,28.50892086,-9.93759794,9.043564514,31.51666989
15.97692858,31.64075272,-10.90889998,10.95467783,35.21571095
15.98700958,33.99823078,-11.36423202,12.7735139,38.05506699
15.99708958,32.87616179,-10.72646568,11.98143136,36.59854885
16.00716958,29.35896802,-9.926818013,9.85200055,32.52003435
16.01724958,25.06881678,-9.183026454,8.302725799,27.95905588
16.02733058,19.99769739,-7.6036134,6.342956629,22.31492631
16.03741058,13.80397807,-5.197719802,2.972733793,15.04670223
16.04749058,7.334426887,-2.615783205,-0.565315826,7.807414522
16.05757058,2.011061531,-0.626196743,-2.88466537,3.571804185
16.06765158,-1.414011111,0.274736398,-3.638528173,3.913284398
16.07773158,-4.151312029,0.604471121,-3.937565306,5.753537819
16.08781158,-6.839543697,0.841398837,-4.101294361,8.019222246
16.09789158,-9.310706255,0.932316316,-3.930196061,10.14913325
16.10797258,-11.44826353,1.080537678,-3.853616831,12.12768165
16.11805258,-13.0385027,1.373358344,-4.115697223,13.7414566
16.12813258,-13.89126414,1.38965775,-4.317878153,14.61309138
16.13821358,-14.20087304,1.25019084,-4.625048763,14.98728956
16.14829358,-14.12441134,1.080878279,-4.885641038,14.98455144
16.15837358,-13.73430148,0.882297187,-4.814860493,14.58054756
16.16845358,-12.96827998,0.709672471,-4.545969849,13.7602966
16.17853358,-12.05318488,0.63684423,-4.346754043,12.82883888
16.18861458,-11.0420212,0.867965662,-4.184617184,11.84021189
16.19869458,-10.17707533,1.376369368,-4.027725863,11.03131137
16.20877458,-9.591878976,1.92558664,-3.769954285,10.48449243
16.21885458,-9.20950674,2.618025612,-3.448615286,10.17654263
16.22893558,-8.913387367,3.373370392,-3.098867006,10.02153077
16.23901558,-8.642305772,3.958132887,-2.634402201,9.863890711
16.24909558,-8.434816155,4.289043486,-2.146688282,9.70310714
16.25917558,-8.233050377,4.419496914,-1.812815046,9.518475187
16.26925658,-8.310497918,4.415196286,-1.711994138,9.565001716
16.27933658,-8.702536186,4.332248562,-1.790557181,9.884766497
16.28941658,-8.94825139,4.101698696,-1.89254841,10.02381537
16.29949658,-8.989532733,3.757305003,-2.038662874,9.954154206
16.30957758,-8.979106563,3.35021571,-2.066529973,9.804021935
16.31965758,-9.075285074,2.737376347,-1.919025772,9.671436726
16.32973758,-9.433302487,2.042621877,-1.70780607,9.801841741
16.33981758,-9.617365234,1.372517222,-1.612141529,9.847665606
16.34989858,-9.315015653,0.918577772,-1.447243323,9.471420959
16.35997858,-8.582674112,0.594311328,-1.025112287,8.66408426
16.37005858,-6.740854976,0.20409973,-0.381387053,6.754719727
16.38013858,-2.949329143,-0.307076982,0.565056136,3.018630005
16.39021958,2.197191854,-0.844286192,1.596819046,2.844345668
16.40029958,8.131118791,-1.643756693,2.903070066,8.788904634
16.41037958,14.94198657,-2.770187413,4.814559946,15.94104415
16.42045958,20.84886955,-4.090246924,7.442887475,22.51226456
16.43054058,24.94904476,-5.247879556,9.452014162,27.1907272
16.44062058,28.58005575,-6.429312987,10.22062891,31.02606819
16.45070058,31.78269037,-8.108939717,10.78552958,34.52856728
16.46078058,33.28740349,-9.20871912,10.06588234,35.97462614
16.47086158,32.61379021,-9.088489257,7.964203588,34.7805763
16.48094158,29.9448029,-8.521957794,5.751452293,31.66060942
16.49102158,25.3978934,-7.821263723,3.576030793,26.81442059
16.50110258,19.41075856,-6.31384802,0.750872537,20.425622
16.51118258,12.47559593,-4.096150273,-2.478128346,13.36263675
16.52126258,5.828360136,-1.476949225,-4.899710901,7.756179975
16.53134546,1.219332159,0.509472431,-5.606232015,5.759875908
16.54142546,-2.106150706,1.476931245,-5.559309863,6.125612039
16.55150646,-5.040846607,2.054089729,-5.489115794,7.730447033
16.56158646,-7.242190568,2.457015512,-5.078451805,9.180246304
16.57166646,-8.774315436,2.88801407,-4.676242306,10.35357324
16.58174646,-10.18205833,3.291313491,-4.670129042,11.67549406
16.59182746,-11.25915405,3.620176394,-4.817273639,12.77029179
16.60190746,-11.72434215,3.851303088,-5.060321344,13.33790038
16.61198746,-11.63600827,3.903176369,-5.140169751,13.30611961
16.62206746,-11.33997075,3.842200727,-4.939699717,12.95214563
16.63214846,-10.90153249,3.602932078,-4.59589747,12.36716636
16.64222846,-10.31149931,3.248514796,-4.209997609,11.60189408
16.65230846,-9.691943547,3.192139451,-3.851107206,10.90662875
16.66238846,-9.223937668,3.250336788,-3.336346407,10.33329196
16.67246946,-8.881825851,3.320216863,-2.799374374,9.886716712
16.68254946,-8.661239056,3.440804576,-2.365463756,9.615176384
16.69262946,-8.553122284,3.611835634,-1.899380296,9.47675593
16.70270946,-8.608491908,3.810770482,-1.437616321,9.52338413
16.71279046,-8.834912471,4.064453102,-1.041254622,9.780576086
16.72287046,-9.013783475,4.243791592,-0.703138207,9.987615479
16.73295046,-9.011686079,4.273334649,-0.388115809,9.981107598
16.74303046,-8.819617324,4.148657393,-0.122292761,9.747408036
16.75311146,-8.760305507,3.942899721,0.18380854,9.608496051
16.76319146,-8.94168906,3.888203404,0.268570216,9.754181612
16.77327146,-9.046101621,3.814376752,0.215343524,9.819765647
16.78335146,-8.957320422,3.530787377,0.17387529,9.629656342
16.79343246,-8.620362341,3.203690333,0.16831678,9.197967665
16.80351246,-8.165492817,2.736266545,0.170113776,8.613441023
16.81359246,-8.044149644,2.286287779,0.058458854,8.362946415
16.82367246,-7.780201651,1.797639767,-0.163640616,7.986853243
16.83375346,-6.626119156,0.901935646,-0.096400706,6.687917171
16.84383346,-4.827469429,-0.255847991,0.053242553,4.834537625
16.85391346,-2.62776795,-1.316189532,-0.075627303,2.939938566
16.86399346,0.511205692,-2.433971051,0.084098164,2.488497305
16.87407446,4.854108174,-4.038680622,0.753807108,6.35936573
16.88415446,9.747994956,-6.020131853,1.979846024,11.62691633
16.89423446,14.34543024,-8.169520964,3.856077924,16.95292832
16.90431446,18.04516356,-9.708573028,6.096418136,21.37874253
16.91439546,20.70856444,-10.71973086,8.380058734,24.7786734
16.92447546,24.48698842,-12.20583814,10.14373685,29.18030987
16.93455546,29.75039935,-13.65149204,11.36085818,34.64850062
16.94463546,33.51365565,-13.58959459,11.15369483,37.84504069
16.95471646,32.95164233,-11.87126046,9.329181118,36.24598154
16.96479646,28.48595066,-9.830716685,7.263204292,30.99752429
16.97487646,22.26382791,-7.974502873,5.852210344,24.36224734
16.98495646,16.49982516,-5.539489557,3.833306528,17.82202047
16.99503746,11.69055694,-3.025901648,1.119443589,12.12758658
17.00511746,7.330062525,-0.788413708,-1.599315223,7.543820118
17.01519746,3.224648216,1.263778892,-3.973480074,5.271056545
17.02527746,-0.14614063,2.820250688,-5.512597042,6.193859635
17.03535846,-2.752625885,3.649952171,-6.036650237,7.572334263
17.04543846,-4.741566814,4.368785474,-6.152919781,8.912191886
17.05551846,-6.294634069,5.146649051,-6.484996607,10.40026901
17.06559846,-7.528742727,5.755086923,-7.03948105,11.8049687
17.07567946,-8.201088912,6.204713833,-7.474357774,12.7130782
17.08575946,-8.555842994,6.41742209,-7.576910335,13.1070716
17.09583946,-8.841977661,6.363411359,-7.772874506,13.38249421
17.10591946,-9.406778932,6.267241033,-8.117840348,13.91636202
17.11600046,-9.902555577,6.122360478,-8.140683081,14.20614747
17.12608046,-9.979842904,5.863777306,-7.882178847,14.00392417
17.13616046,-9.723981611,5.563307605,-7.60952435,13.54293435
17.14624046,-9.208723213,5.357803118,-7.264400632,12.89488868
17.15632146,-8.700720041,5.348606032,-6.728864091,12.23060619
17.16640146,-8.266765423,5.367208949,-6.022083653,11.55040406
17.17648146,-7.833206077,5.441126525,-5.147078236,10.83777605
17.18656146,-7.475262339,5.630931239,-4.276180488,10.28944378
17.19664246,-7.176073762,5.892655535,-3.488711398,9.919200125
17.20672246,-6.814734546,6.181150723,-2.786043892,9.612974137
17.21680246,-6.652553834,6.451078663,-2.189625556,9.521940375
17.22688246,-6.553946389,6.66804954,-1.886871933,9.53820652
17.23696246,-6.471898259,6.859685016,-1.804151081,9.601859545
17.24704346,-6.446261727,6.982376558,-1.751051346,9.663025068
17.25712346,-6.45931739,6.97848699,-1.754432498,9.669544725
17.26720346,-6.483578657,6.907431625,-1.799847237,9.643072847
17.27728346,-6.380284669,6.828032284,-1.756322026,9.508665752
17.28736446,-6.334665277,6.602401096,-1.637887258,9.295286928
17.29744446,-6.260060652,6.326835271,-1.634981484,9.049329719
17.30752446,-5.77534811,5.968990935,-1.527350323,8.444897725
17.31760446,-4.745616596,5.255619516,-0.878285705,7.135390609
17.32768546,-3.267207175,4.11558788,0.0559599,5.255077338
17.33776546,-1.130431677,2.488300163,0.926269418,2.885738815
17.34784546,2.694646649,0.113330734,1.972114689,3.341137645
17.35792546,6.849021449,-2.94691629,4.251361982,8.582976705
17.36800646,10.50149874,-6.559716421,7.570236908,14.51274757
17.37808646,13.59215333,-9.791942044,10.63150573,19.84080833
17.38816646,15.8959832,-11.57793138,12.2493578,23.1684601
17.39824646,18.14440718,-13.40746435,13.15877642,26.11767618
17.40832746,21.38325829,-16.2548046,15.12020035,30.82341425
17.41840746,23.31665184,-17.4629025,16.2728035,33.3679989
17.42848746,23.33246505,-17.19982224,15.15364642,32.70887968
17.43856746,23.39460691,-16.8664678,13.28805602,31.75465007
17.44864846,24.35893908,-16.659115,11.55926122,31.69385659
17.45872846,24.81486519,-15.65133218,9.039459769,30.69940661
17.46880846,21.47732595,-12.84395063,5.741523721,25.67504026
17.47888846,14.68387293,-9.141168576,2.581141083,17.48826397
17.48896946,7.238251884,-4.91730605,-0.615972009,8.772206715
17.49904946,0.506198137,-1.088884286,-3.780919569,3.967021342
17.50912946,-4.964268547,1.845591175,-5.828580576,7.875437799
17.51920946,-7.534387044,3.983536408,-6.472255524,10.70166539
17.52929046,-8.092242993,5.20286769,-6.81598702,11.79033112
17.53936671,-8.671862277,5.843241885,-8.244705048,13.31614931
17.54944671,-9.306032576,6.479853981,-9.646691945,14.88789493
17.55952671,-9.660356888,6.739604841,-10.00806858,15.456591
17.56960771,-9.33928803,6.321116694,-9.503567308,14.74776623
17.57968771,-9.037053639,5.678869636,-8.831980677,13.85358371
17.58976771,-9.197715245,4.896409563,-8.210225186,13.2657676
17.59984771,-9.318318161,3.857050316,-7.744411429,12.71549444
17.60992771,-9.263349071,3.003369403,-7.722160435,12.42825915
17.62000871,-9.180846028,2.70553241,-7.804992092,12.35013121
17.63008871,-9.50648156,2.768415999,-7.421935147,12.37426524
17.64016871,-9.858550601,2.996877824,-6.725998955,12.30493229
17.65024871,-9.897541004,3.013117588,-6.031200632,11.97562427
17.66032971,-9.555158461,2.841475204,-5.328170013,11.30329289
17.67040971,-8.922919498,2.94833804,-4.440964673,10.3939096
17.68048971,-8.648244789,3.188796598,-3.656626475,9.916223013
17.69056971,-8.747203066,3.334036172,-3.158686361,9.879608201
17.70065071,-8.876309588,3.523540046,-2.785128803,9.947921833
17.71073071,-8.904853941,3.841030407,-2.446384982,10.00173674
17.72081071,-8.848024267,3.992214261,-2.307907712,9.977562134
17.73089071,-8.800226203,4.089035674,-2.435586636,10.00481265
17.74097171,-8.798632252,4.174930979,-2.687861247,10.10299838
17.75105171,-8.690324861,4.187312458,-3.043982993,10.11539244
17.76113171,-8.447225116,4.241916389,-3.133338973,9.958276956
17.77121171,-8.2027197,4.159065437,-2.932942321,9.653216378
17.78129271,-8.003454192,4.0882501,-2.742999322,9.396441516
17.79137271,-7.612941463,4.117265739,-2.474132359,9.001671279
17.80145271,-6.869331753,3.902643396,-1.985116558,8.146105324
17.81153271,-5.613903562,3.322682341,-1.348369976,6.661398707
17.82161371,-3.302177618,2.413846104,-0.53697291,4.125453907
17.83169371,-0.004010605,1.076113383,0.62706827,1.245492157
17.84177371,4.032320021,-0.842233235,2.074749111,4.612325384
17.85185371,8.806659309,-3.642275361,4.727029467,10.63805554
17.86193471,13.55652391,-7.287210621,9.10157474,17.88075619
17.87201471,18.32460083,-10.69834525,12.17004149,24.46130611
17.88209471,22.5256522,-12.39310575,12.71876876,28.68381348
17.89217471,25.74771127,-14.35156514,13.28079845,32.33097068
17.90225571,28.62452967,-17.46790538,13.71893968,36.231212
17.91233571,29.22246594,-18.80789425,12.79553803,37.03262339
17.92241571,27.24844594,-18.16137697,11.06110885,34.56387636
17.93249571,23.95245702,-16.54584742,9.198529177,30.53028338
17.94257671,19.84476697,-14.26073683,7.352697097,25.51951304
17.95265671,15.11850934,-11.09307441,5.129632484,19.44064695
17.96273671,10.16143754,-7.695381356,2.650564198,13.01918575
17.97281671,5.467964661,-4.361617957,-0.014886719,6.994467124
17.98289671,1.779540442,-1.427706752,-2.511299601,3.392894994
17.99297771,-0.870723501,0.8561882,-4.306184599,4.475985193
18.00305771,-3.238585639,2.45446408,-5.687413588,6.98995738
18.01313771,-5.139766293,3.870083175,-7.051680096,9.545728548
18.02321771,-6.379987046,5.230663015,-8.181030623,11.6186631
18.03329871,-7.126948965,6.138498793,-9.047512554,13.05113223
18.04337871,-7.647152937,6.535855104,-9.623293726,13.92135525
18.05345871,-7.963887253,6.648812785,-9.847394114,14.30389396
18.06353871,-8.184229635,6.587624012,-9.606831475,14.23620792
18.07361971,-8.172827564,6.410320061,-9.050656017,13.77685334
18.08369971,-8.013908429,6.186887426,-8.244800357,13.05668554
18.09377971,-7.769254494,5.939595228,-7.209706947,12.14989634
18.10385971,-7.432002298,5.736148961,-6.165829264,11.23189715
18.11394071,-7.161664469,5.56308658,-5.3253002,10.51647244
18.12402071,-6.751760618,5.478021871,-4.442548977,9.763771632
18.13410071,-6.39944424,5.569939517,-3.71735361,9.262603882
18.14418071,-6.243172724,5.654072179,-3.227486454,9.020111235
18.15426171,-6.184817512,5.680429673,-3.00640323,8.919512841
18.16434171,-6.210302017,5.784596066,-3.126587486,9.044609007
18.17442171,-6.296505763,5.911884103,-3.312874514,9.250486259
18.18450171,-6.420857913,5.974285589,-3.448848006,9.424121031
18.19458171,-6.6178471,5.987500881,-3.720784172,9.669038313
18.20466271,-6.811627336,5.844956288,-4.010689124,9.83094137
18.21474271,-6.975371593,5.742383262,-4.25644789,9.987398211
18.22482271,-7.085006302,5.711136911,-4.531915482,10.16625088
18.23490271,-7.130439752,5.539771977,-4.819051192,10.23501339
18.24498371,-7.009789474,5.107252851,-4.968724126,9.995468953
18.25506371,-6.881747146,4.683952444,-4.823113253,9.620825106
18.26514371,-6.949830371,4.410908231,-4.628567325,9.443510422
18.27522371,-7.19385456,4.109237511,-4.448439462,9.403509451
18.28530471,-6.929546379,3.68511294,-4.08132612,8.846236109
18.29538471,-5.626668034,2.882254563,-3.394044684,7.175397121
18.30546471,-3.431160763,1.843609846,-2.264880099,4.505712297
18.31554471,-1.382085314,0.911934969,-0.86417842,1.867776631
18.32562571,0.956263588,-0.248705471,0.619859531,1.166413434
18.33570571,4.492834446,-2.513798408,2.904590927,5.911124449
18.34578571,8.967516212,-5.547948139,5.95656911,12.11101941
18.35586571,13.69893401,-8.715607052,9.151743851,18.63805287
18.36594671,17.55813377,-11.19085506,11.78483745,23.9250014
18.37602671,19.85178129,-12.64443077,13.28753445,27.02838178
18.38610671,21.85388664,-14.07952694,14.72196286,29.87576996
18.39618671,24.03363274,-15.59307404,16.27727896,32.95010274
18.40626671,25.44966465,-15.78364064,15.88706502,33.89996427
18.41634771,25.3361585,-15.14124097,14.53759782,32.9016695
18.42642771,23.66904481,-14.40736629,13.07416487,30.63869568
18.43650771,20.85508865,-13.05076314,11.29221303,27.06974726
18.44658771,16.8186902,-10.55440902,9.093276372,21.8392208
18.45666871,12.27214323,-7.606267451,6.248218287,15.73216564
18.46674871,7.98108333,-5.00225323,3.372540672,10.00471184
18.47682871,3.563110785,-2.195219003,0.465025553,4.21081865
18.48690871,-0.334560138,0.441327957,-2.658731588,2.715797215
18.49698971,-3.546054457,2.148096,-4.808722671,6.349222973
18.50706971,-6.083922052,3.09559198,-6.112101538,9.162673325
18.51714971,-7.998039671,3.937093436,-7.329259118,11.5406838
18.52722971,-9.240705144,4.694045908,-8.500511962,13.40460377
18.53731146,-9.691963427,4.869091372,-9.267520475,14.26636399
18.54739146,-9.884405819,4.784349429,-9.488073356,14.51258123
18.55747146,-10.0669173,4.638641785,-9.619889477,14.67658322
18.56755146,-10.29973004,4.323777409,-9.422425497,14.61374669
18.57763246,-10.27743461,3.956809663,-8.794958446,14.09373261
18.58771246,-10.08444842,3.640171241,-7.943484564,13.34338389
18.59779246,-9.80291259,3.47884773,-6.916417626,12.49144946
18.60787246,-9.406270224,3.480454253,-5.691708952,11.53200035
18.61795246,-9.010198547,3.606449763,-4.526645971,10.70890664
18.62803346,-8.532089265,3.765770018,-3.530294165,9.971988164
18.63811346,-8.055817763,3.89119864,-2.690016823,9.342045664
18.64819346,-7.609544231,4.085201654,-2.167429526,8.904593573
18.65827346,-7.329933887,4.345581676,-1.972124045,8.746501251
18.66835446,-7.139031066,4.491824048,-1.957095531,8.65866449
18.67843446,-6.820203447,4.520748469,-2.116859297,8.451830279
18.68851446,-6.938672714,4.622309927,-2.235084735,8.631716623
18.69859446,-7.184261034,4.902044525,-2.587416607,9.074049362
18.70867546,-7.44084972,5.043087845,-3.084218269,9.503230077
18.71875546,-7.775064873,4.965588264,-3.423611423,9.840214213
18.72883546,-7.674046036,4.792366547,-3.675128527,9.765466162
18.73891546,-7.583269767,4.56127289,-3.845756127,9.648887548
18.74899646,-7.768154633,4.373544523,-4.062420025,9.796702229
18.75907646,-7.865385643,4.159955675,-4.2355783,9.854422666
18.76915646,-7.680511887,3.798445136,-4.193018464,9.539384264
18.77923646,-7.0257781,3.12018303,-3.822194771,8.585235753
18.78931646,-5.330084977,2.1126417,-3.058799545,6.498408687
18.79939746,-3.139251385,0.875755322,-2.01078028,3.829501792
18.80947746,-1.075820437,-0.33976109,-0.81872275,1.393963469
18.81955746,1.546140643,-2.035200591,0.474254505,2.599521046
18.82963746,5.210060935,-4.334975411,2.109866904,7.098470618
18.83971846,8.789984804,-6.738354707,4.185685471,11.84015287
18.84979846,11.9254548,-9.147966549,6.429073836,16.34731643
18.85987846,13.84501851,-10.7429677,8.655756122,19.54528093
18.86995846,15.00705088,-11.50709587,10.44753128,21.60499343
18.88003946,16.93666128,-12.5949645,12.60246413,24.58263062
18.89011946,19.46142351,-14.10050441,14.63883651,28.14012729
18.90019946,22.3756524,-15.37642183,15.82329763,31.42420909
18.91027946,24.75110481,-15.71572523,16.14195451,33.46884976
18.92036046,24.79429235,-14.64434108,15.11521151,32.52204295
18.93044046,21.93116578,-12.51647966,13.58596464,28.6743218
18.94052046,17.65275224,-10.01748377,11.4906535,23.32390963
18.95060046,13.53404253,-7.175560377,9.109942106,17.82273882
18.96068146,9.499201192,-4.292564971,6.335444126,12.19831093
18.97076146,5.689236749,-1.846336695,3.278024231,6.82069035
18.98084146,2.725688932,0.147962623,0.472794163,2.770344277
18.99092146,0.283999849,1.762370971,-2.08595033,2.745504713
19.00100146,-2.058941456,2.845986331,-4.024598773,5.34193536
19.01108246,-4.127188756,3.673575799,-5.339803634,7.68390194
19.02116246,-5.90478266,4.633887707,-6.260046034,9.773819616
19.03124246,-7.397473905,5.470536851,-6.889794084,11.49428798
19.04132246,-8.323525515,6.060202821,-7.376854869,12.66590395
19.05140346,-8.814843072,6.291785306,-7.492851348,13.16931441
19.06148346,-9.172067603,6.124391216,-7.297773031,13.22469217
19.07156346,-9.458040302,5.890892015,-7.013687228,13.1662046
19.08164346,-9.60207652,5.625224941,-6.816041399,13.04995975
19.09172446,-9.60432302,5.348732332,-6.651114249,12.84870729
19.10180446,-9.417912616,5.066403033,-6.356297636,12.44058027
19.11188446,-9.337727408,4.778772063,-5.781212282,11.97715455
19.12196446,-9.467292352,4.703670717,-5.213175747,11.7869141
19.13204446,-9.572620586,4.776588712,-4.766254928,11.71187648
19.14212546,-9.348417873,4.814825994,-4.337562804,11.37496889
19.15220546,-8.922155267,4.725944516,-3.809285873,10.79120313
19.16228546,-8.590136329,4.764129758,-3.228139881,10.33964514
19.17236546,-8.524821761,5.122820477,-2.74005788,10.31619081
19.18244646,-8.550798601,5.448400462,-2.447804686,10.43038696
19.19252646,-8.552477921,5.542556421,-2.239747012,10.43461916
19.20260646,-8.474690073,5.663629453,-2.098411039,10.40674778
19.21268646,-8.157574518,5.834931822,-2.121122794,10.25142006
19.22276746,-7.922101296,6.044769681,-2.2151124,10.20811699
19.23284746,-7.737421083,6.186947068,-2.257325204,10.16078324
19.24292746,-7.46562028,6.143281231,-2.280454158,9.93357245
19.25300746,-7.042740288,5.999623328,-2.270320348,9.526280771
19.26308846,-6.722403502,6.016121832,-2.356970822,9.324148337
19.27316846,-6.24509295,6.010761105,-2.367488209,8.985289947
19.28324846,-5.009072837,5.503118706,-2.034039334,7.714430776
19.29332846,-2.983314915,4.113248117,-1.387241681,5.26720205
19.30340846,-0.246172457,2.248194777,-0.780334025,2.392467727
19.31348946,3.102460704,0.250074596,0.204550514,3.119237189
19.32356946,6.512489045,-2.586057715,2.716566398,7.51531377
19.33364946,10.33387778,-6.469875122,6.424515932,13.78124519
19.34372946,14.69725604,-9.993991996,9.418593231,20.11464913
19.35381046,18.37178084,-11.79978293,10.55685082,24.25292369
19.36389046,21.71922994,-13.64434558,11.14947899,27.96791013
19.37397046,25.32556568,-16.08883723,12.37301238,32.45499031
19.38405046,27.93354315,-17.82085618,13.04495101,35.60950006
19.39413146,28.09722075,-17.87080544,12.49138809,35.56478985
19.40421146,26.25734055,-16.30329673,11.04822042,32.82237943
19.41429146,23.27225042,-14.17933657,9.294108349,28.79291016
19.42437146,19.30648867,-11.33902818,7.323551066,23.55734419
19.43445246,14.66354567,-7.574964967,4.656486318,17.14883468
19.44453246,10.24358975,-3.865272671,1.856805404,11.10491739
19.45461246,6.193929813,-0.703627912,-0.434140559,6.248866841
19.46469246,2.656062042,1.91130043,-2.427020758,4.074084519
19.47477246,-0.268422282,4.094018963,-4.048827295,5.764203697
19.48485346,-2.71938271,5.629012767,-4.988126357,7.997639127
19.49493346,-4.738672442,6.585325472,-5.316158663,9.699642829
19.50501346,-6.450385768,7.345019703,-5.418718826,11.1767305
19.51509346,-7.784066661,7.928440847,-5.60328151,12.44381902
19.52517446,-8.766186637,8.115706115,-5.727754698,13.24831641
19.53525375,-9.291404597,7.796130636,-5.699540128,13.40129135
19.54533375,-9.873520643,7.18694666,-5.50470681,13.39553691
19.55541375,-10.50398965,6.675390719,-5.280533332,13.51956627
19.56549475,-10.8048979,6.108718924,-4.934517914,13.35708548
19.57557475,-10.74619068,5.385239423,-4.53341003,12.84652577
19.58565475,-10.41153582,4.764260443,-4.102670796,12.16265445
19.59573475,-10.17239756,4.378108567,-3.507839395,11.61681729
19.60581475,-10.03874775,4.132798282,-2.896324718,11.23588781
19.61589575,-9.778904507,3.922660754,-2.295210045,10.78342385
19.62597575,-9.389319731,3.762298818,-1.812554845,10.27616526
19.63605575,-9.099041727,3.757426333,-1.365400722,9.938567911
19.64613575,-8.882455596,3.973807811,-1.107963166,9.79370963
19.65621675,-8.552849219,4.04397586,-1.025695327,9.516145303
19.66629675,-8.32064693,4.065093372,-0.916319504,9.305793405
19.67637675,-8.445912416,4.28136463,-0.959256778,9.517546596
19.68645675,-8.613262067,4.517046597,-1.231392772,9.803485174
19.69653775,-8.576613473,4.725737524,-1.478159306,9.903325136
19.70661775,-8.310510782,4.843571491,-1.743619388,9.775734388
19.71669775,-8.014070397,4.891021062,-1.94411749,9.587857121
19.72677775,-8.012906801,4.972727129,-1.958337187,9.631706757
19.73685775,-8.185071634,5.147080575,-1.890592078,9.852013728
