"Time (s)","Linear Acceleration x (m/s^2)","Linear Acceleration y (m/s^2)","Linear Acceleration z (m/s^2)","Absolute acceleration (m/s^2)"
1.166583336E-2,-3.753669205E0,1.145168122E0,-1.045817906E1,1.117027089E1
2.174483333E-2,-3.977296552E0,8.901773335E-1,-1.043383944E1,1.120162082E1
3.182383336E-2,-4.376642962E0,7.637001586E-1,-1.000014911E1,1.094263331E1
4.190183332E-2,-4.629379796E0,7.881668092E-1,-9.141757391E0,1.027735824E1
5.197983334E-2,-4.481193225E0,7.300321832E-1,-8.436666799E0,9.580782138E0
6.205883337E-2,-4.306131389E0,4.907275736E-1,-8.153908898E0,9.234165442E0
7.213783334E-2,-4.306496255E0,2.703112248E-1,-7.999022003E0,9.088637475E0
8.221583336E-2,-4.356049946E0,2.245048682E-1,-7.768586742E0,8.909349782E0
9.229483333E-2,-4.389414158E0,2.538814259E-1,-7.457433593E0,8.657062333E0
1.023728334E-1,-4.442565933E0,2.107937323E-1,-7.056602867E0,8.341251111E0
1.124518333E-1,-4.476313723E0,1.233929148E-1,-6.623369796E0,7.995100863E0
1.225298333E-1,-4.191368672E0,-6.851124108E-2,-6.334567044E0,7.595986096E0
1.326088333E-1,-3.686907451E0,-2.221813309E-1,-6.113844008E0,7.142950346E0
1.426868333E-1,-3.170843307E0,-4.652711356E-1,-5.941582696E0,6.750787320E0
1.527658334E-1,-2.823968056E0,-6.622269934E-1,-5.392710995E0,6.123289316E0
1.628438333E-1,-2.478039176E0,-5.006941527E-1,-4.693182859E0,5.330791512E0
1.729228334E-1,-1.535943099E0,-3.188551015E-1,-4.122399886E0,4.410778911E0
1.830008333E-1,3.213851917E-1,-3.166545019E-1,-2.827829264E0,2.863595094E0
1.930798333E-1,2.512975997E0,-1.839881954E-1,-3.786265093E-1,2.547990984E0
2.031578334E-1,4.597020135E0,6.281757331E-1,2.835334166E0,5.437491950E0
2.132368333E-1,6.125779345E0,2.049860145E0,7.230125424E0,9.695453205E0
2.233148334E-1,6.876558326E0,3.703964071E0,1.208357520E1,1.438816159E1
2.333938333E-1,8.409718736E0,4.412618834E0,1.688107531E1,1.936918372E1
2.434718334E-1,1.200224394E1,3.309412962E0,2.161327372E1,2.494272789E1
2.535508333E-1,1.718622746E1,4.655883470E-1,2.542772590E1,3.069450164E1
2.636288333E-1,2.170087436E1,-3.314672240E0,2.717222398E1,3.493200189E1
2.737078333E-1,2.275991504E1,-5.632691250E0,2.641744199E1,3.532169567E1
2.837858333E-1,2.021007060E1,-5.903122635E0,2.373987330E1,3.173129993E1
2.938648334E-1,1.584862309E1,-4.786371689E0,2.182890032E1,2.739688115E1
3.039428333E-1,1.104686504E1,-2.821246469E0,1.987255762E1,2.291094073E1
3.140218334E-1,7.703069276E0,-1.508086087E0,1.642919079E1,1.820796282E1
3.240998333E-1,5.658632423E0,-1.252369512E0,1.259201984E1,1.386172839E1
3.341788333E-1,4.071788142E0,-8.995229383E-1,8.929325123E0,9.855021428E0
3.442568334E-1,2.112980838E0,-1.810949931E-1,5.541445450E0,5.933388669E0
3.543358333E-1,-3.672042659E-1,5.539488387E-1,1.960076149E0,2.069685193E0
3.644138334E-1,-2.251327130E0,1.832640762E0,-6.419827634E-1,2.973077173E0
3.744928333E-1,-3.277315841E0,2.965119549E0,-2.142642594E0,4.911583283E0
3.845708334E-1,-4.057244655E0,3.833627540E0,-3.464051351E0,6.569443360E0
3.946498333E-1,-4.736106392E0,4.557278949E0,-4.565763844E0,8.002855406E0
4.047278333E-1,-5.211486486E0,4.696912213E0,-5.447289491E0,8.882203473E0
4.148068333E-1,-5.458554736E0,4.415739493E0,-6.280407209E0,9.420089691E0
4.248848333E-1,-5.383189974E0,3.888234687E0,-7.138016574E0,9.749276070E0
4.349638334E-1,-5.208899093E0,2.977495766E0,-7.679138961E0,9.745116006E0
4.450418333E-1,-5.091160144E0,2.047804264E0,-7.923937322E0,9.638578557E0
4.551208334E-1,-4.917496669E0,1.385637497E0,-8.197533220E0,9.659260617E0
4.651988333E-1,-4.580197111E0,8.616761041E-1,-8.515603625E0,9.707532971E0
4.752778333E-1,-4.192852403E0,4.872990587E-1,-8.850663700E0,9.805698322E0
4.853558334E-1,-3.839850147E0,4.465635538E-2,-9.080742280E0,9.859326737E0
4.954348333E-1,-3.486395901E0,-3.452851009E-1,-9.338837795E0,9.974370633E0
5.055128334E-1,-3.143664864E0,-4.240832023E-1,-9.862423797E0,1.036001344E1
5.155918333E-1,-3.050037200E0,-5.523756453E-1,-1.025683954E1,1.071497098E1
5.256698334E-1,-3.199655170E0,-8.833393072E-1,-1.021640839E1,1.074211719E1
5.357488333E-1,-3.251869636E0,-1.011328572E0,-1.014444904E1,1.070080782E1
5.458268333E-1,-3.094826580E0,-9.329245730E-1,-1.020598046E1,1.070562175E1
5.559058333E-1,-2.839221395E0,-1.091088979E0,-1.016620302E1,1.061147196E1
5.659838333E-1,-2.459040695E0,-1.473801961E0,-9.945009871E0,1.034998525E1
5.760628334E-1,-2.016540956E0,-1.709598534E0,-9.847001181E0,1.019571463E1
5.861408333E-1,-1.787649946E0,-1.824750383E0,-9.769617959E0,1.009806127E1
5.962198334E-1,-1.749416757E0,-1.835079051E0,-9.559092468E0,9.889601758E0
6.062988333E-1,-1.691753562E0,-1.699312258E0,-9.348524877E0,9.651145509E0
6.163768333E-1,-1.592899657E0,-1.508066791E0,-8.938775393E0,9.203982849E0
6.264558333E-1,-1.486186218E0,-1.408752126E0,-8.226557629E0,8.477592963E0
6.365338333E-1,-1.464584264E0,-1.382669158E0,-7.327744689E0,7.599514675E0
6.466128334E-1,-1.452118293E0,-1.341149834E0,-6.578061476E0,6.868640564E0
6.566908333E-1,-1.142255770E0,-1.206479979E0,-5.639907299E0,5.879531999E0
6.667698334E-1,-6.961330967E-1,-9.690982264E-1,-4.517894443E0,4.672806743E0
6.768478333E-1,-3.708403569E-1,-6.417822039E-1,-2.926802160E0,3.019201526E0
6.869268334E-1,4.640759647E-2,-2.854335862E-1,-2.293418312E-1,3.690849126E-1
6.970048333E-1,8.354381125E-1,8.569237795E-1,2.541568297E0,2.809242712E0
7.070838333E-1,1.925965247E0,2.750891308E0,4.557262577E0,5.660864538E0
7.171618334E-1,2.452524558E0,4.134576420E0,7.891315706E0,9.240263116E0
7.272408333E-1,2.574515603E0,4.708673887E0,1.179963441E1,1.296268153E1
7.373188334E-1,3.202706539E0,4.732182618E0,1.526093348E1,1.629561205E1
7.473978333E-1,4.107922473E0,4.072495655E0,1.860156121E1,1.948020348E1
7.574758334E-1,4.824833796E0,3.521198528E0,2.099477162E1,2.182792467E1
7.675548333E-1,5.694620866E0,3.034691183E0,2.225104122E1,2.316779862E1
7.776328333E-1,6.870272570E0,2.888565755E0,2.266330267E1,2.385727866E1
7.877118334E-1,7.712225431E0,2.792758542E0,2.251200480E1,2.395972206E1
7.977898333E-1,7.649519305E0,2.497906553E0,2.179558054E1,2.323363971E1
8.078688334E-1,6.783859493E0,2.195329515E0,1.949553149E1,2.075851559E1
8.179468333E-1,5.533745252E0,1.726880418E0,1.656483450E1,1.754987734E1
8.280258334E-1,4.479479406E0,1.435620666E0,1.324074386E1,1.405147823E1
8.381038333E-1,3.418755310E0,1.280883459E0,9.845683218E0,1.050076323E1
8.481828333E-1,2.306880064E0,8.898482814E-1,6.830909114E0,7.264629716E0
8.582608334E-1,1.457775620E0,3.368686187E-1,3.889272568E0,4.167137066E0
8.683398333E-1,7.546900378E-1,1.691716433E-2,1.662915387E0,1.826234056E0
8.784178334E-1,8.884493351E-2,-1.519457459E-1,-1.213145220E-1,2.137712450E-1
8.884968333E-1,-4.692593752E-1,-3.552984577E-1,-1.648345295E0,1.750280997E0
8.985748334E-1,-3.143773037E-1,-4.420068187E-1,-2.708911516E0,2.762680712E0
9.086538333E-1,1.963079864E-1,-6.551846069E-1,-2.968676995E0,3.046448226E0
9.187318333E-1,-2.684195920E0,-8.935554162E-1,-4.626166751E0,5.422616327E0
9.288108333E-1,-2.595926353E0,-8.374391028E-1,-7.433552980E0,7.918197256E0
9.388888333E-1,-2.096893394E0,-1.343878145E0,-7.472321774E0,7.876456250E0
9.489682917E-1,-2.115277625E0,-1.803925670E0,-7.943030235E0,8.415478392E0
9.590462917E-1,-2.241180749E0,-2.255067302E0,-9.363228285E0,9.888289215E0
9.691252917E-1,-2.366536136E0,-2.748463837E0,-1.033419119E1,1.095217121E1
9.792032917E-1,-2.391341633E0,-3.298207066E0,-1.087606202E1,1.161401781E1
9.892822917E-1,-2.425587167E0,-3.503450767E0,-1.072617449E1,1.154159693E1
9.993602917E-1,-2.685289057E0,-3.342430142E0,-1.038043331E1,1.123102899E1
1.009439292E0,-3.280066079E0,-3.747698028E0,-1.074132931E1,1.183977319E1
1.019517292E0,-3.385221528E0,-3.961228111E0,-1.070161619E1,1.190275775E1
1.029596292E0,-3.072772636E0,-3.721628802E0,-1.026857607E1,1.134619351E1
1.039674292E0,-2.822766160E0,-3.565972705E0,-9.879467261E0,1.087603069E1
1.049753292E0,-2.766347254E0,-3.708023793E0,-9.688192558E0,1.073606970E1
1.059831292E0,-2.724784660E0,-3.953952128E0,-9.530562733E0,1.067191711E1
1.069910292E0,-2.467313336E0,-4.044926618E0,-9.150964417E0,1.030481519E1
1.079988292E0,-2.179844042E0,-4.261584376E0,-8.454292645E0,9.715342793E0
1.090067292E0,-2.048519379E0,-4.435013377E0,-9.259499849E0,1.046919829E1
1.100145292E0,-1.463057264E0,-4.216573095E0,-8.874008124E0,9.933179018E0
1.110224292E0,-1.587713908E0,-4.196476800E0,-8.224246809E0,9.368537163E0
1.120302292E0,-1.633491613E0,-4.239179893E0,-8.316954414E0,9.476849251E0
1.130381292E0,-1.240289165E0,-4.193854031E0,-8.011611643E0,9.127576346E0
1.140459292E0,-6.003246409E-1,-4.193117867E0,-7.618018016E0,8.716468643E0
1.150538292E0,-2.279218349E-1,-4.117730007E0,-7.135858952E0,8.241852447E0
1.160616292E0,1.857400212E-1,-3.790611036E0,-6.589212116E0,7.604008659E0
1.170695292E0,7.162692994E-1,-3.438159003E0,-5.801306239E0,6.781528818E0
1.180774292E0,1.167217534E0,-2.997863957E0,-4.586971110E0,5.602668029E0
1.190852292E0,1.770115754E0,-2.201876643E0,-3.117667558E0,4.207305734E0
1.200931292E0,2.244263548E0,-1.002894548E0,-8.359927940E-1,2.596420670E0
1.211009292E0,1.749802234E0,1.071770071E0,2.465353934E0,3.207564335E0
1.221088292E0,7.814281856E-1,3.604704369E0,6.372917177E0,7.363327844E0
1.231166292E0,-4.131820920E-1,5.758751957E0,1.068430609E1,1.214447776E1
1.241245292E0,-9.928580949E-1,6.992777000E0,1.449152293E1,1.612107112E1
1.251323292E0,-2.019251872E-1,7.125840333E0,1.794729871E1,1.931123780E1
1.261402292E0,1.032822791E0,6.522633380E0,2.033481977E1,2.138027980E1
1.271480292E0,2.171718312E0,6.079900337E0,2.121270670E1,2.217341819E1
1.281559292E0,2.795949368E0,6.558864482E0,2.150523354E1,2.265637010E1
1.291637292E0,2.896918503E0,7.345065896E0,2.184230915E1,2.322560223E1
1.301716292E0,2.683798310E0,7.739331953E0,2.111121307E1,2.264472013E1
1.311794292E0,2.457807518E0,7.264101840E0,1.894340698E1,2.043674782E1
1.321873292E0,2.573072803E0,5.865135030E0,1.620626686E1,1.742594612E1
1.331951292E0,2.540172567E0,4.552826879E0,1.289546577E1,1.390948406E1
1.342030292E0,2.171645368E0,3.450375298E0,9.414010184E0,1.025888498E1
1.352108292E0,1.727697713E0,2.297943180E0,6.260097490E0,6.888708357E0
1.362187292E0,1.421525660E0,1.201888161E0,3.566531991E0,4.023110836E0
1.372265292E0,9.433853880E-1,1.684343094E-1,1.481372205E0,1.764315651E0
1.382344292E0,2.294393335E-1,-4.464568421E-1,-2.663541216E-1,5.682522659E-1
1.392422292E0,-3.943777388E-1,-5.884731388E-1,-1.671083363E0,1.815035548E0
1.402501292E0,-6.722992609E-1,-5.535325170E-1,-2.729497223E0,2.865054910E0
1.412579292E0,-7.725335473E-1,-4.936383176E-1,-3.460279897E0,3.579668118E0
1.422658292E0,-8.624711792E-1,-3.215886748E-1,-4.239530725E0,4.338305727E0
1.432736292E0,-1.055516273E0,-2.527985215E-2,-5.276497584E0,5.381094724E0
1.442815292E0,-1.280354286E0,2.635316706E-1,-6.210968015E0,6.347037082E0
1.452893292E0,-1.570871150E0,4.965967163E-1,-7.085295154E0,7.274314531E0
1.462972292E0,-1.857883192E0,6.714550692E-1,-7.861412460E0,8.105824309E0
1.473050292E0,-2.038038245E0,7.380206493E-1,-8.392214511E0,8.667614364E0
1.483129292E0,-2.114907788E0,6.700874054E-1,-8.768393376E0,9.044698695E0
1.493207292E0,-2.123989684E0,2.745431471E-1,-9.065105656E0,9.314657625E0
1.503286292E0,-2.183023027E0,-1.998128074E-1,-9.258064358E0,9.514056461E0
1.513364292E0,-2.224261100E0,-6.089568123E-1,-9.347032667E0,9.627314554E0
1.523443292E0,-2.231780765E0,-1.119962530E0,-9.102050119E0,9.438351436E0
1.533521292E0,-2.346631483E0,-1.594647683E0,-8.584951018E0,9.041623999E0
1.543600292E0,-2.364357609E0,-1.977969214E0,-8.149017702E0,8.712579333E0
1.553678292E0,-2.290059525E0,-2.370273530E0,-7.864571711E0,8.527253804E0
1.563757292E0,-2.102815746E0,-2.714882400E0,-7.596930617E0,8.337012373E0
1.573835292E0,-1.942733746E0,-3.053993134E0,-7.523275580E0,8.348698337E0
1.583914292E0,-2.021594120E0,-3.243241484E0,-7.538649080E0,8.452022720E0
1.593992292E0,-1.969685171E0,-3.288763228E0,-7.709768431E0,8.610235333E0
1.604071292E0,-1.958672817E0,-3.411374955E0,-7.887863510E0,8.814321814E0
1.614149292E0,-2.055870937E0,-3.389960404E0,-7.911695591E0,8.849483826E0
1.624228292E0,-1.964046993E0,-3.250840526E0,-7.836117990E0,8.708053162E0
1.634307292E0,-1.675099961E0,-3.242875156E0,-7.459383640E0,8.304492967E0
1.644385292E0,-1.413687176E0,-3.253343427E0,-6.881952968E0,7.742353100E0
1.654464292E0,-1.203877968E0,-3.209590174E0,-6.241692209E0,7.121061219E0
1.664542292E0,-7.295555621E-1,-3.136754332E0,-5.478775578E0,6.355191648E0
1.674621292E0,-1.923498599E-1,-2.917024738E0,-4.879649981E0,5.688322752E0
1.684699292E0,3.386338931E-1,-2.512319647E0,-4.356701910E0,5.040562911E0
1.694778292E0,9.336801794E-1,-1.815626241E0,-3.304051065E0,3.883942683E0
1.704856292E0,1.370670672E0,-7.631505203E-1,-1.576702870E0,2.224214187E0
1.714935292E0,1.719966086E0,7.976221955E-1,5.743380797E-1,1.980996904E0
1.725013292E0,1.842990041E0,2.533209118E0,3.321196856E0,4.565534939E0
1.735092292E0,1.717581006E0,4.056150348E0,6.371282880E0,7.745688201E0
1.745170292E0,1.681599726E0,5.230923216E0,9.405126509E0,1.089250843E1
1.755249292E0,1.935044073E0,5.963461808E0,1.167145292E1,1.324877675E1
1.765327292E0,2.157296740E0,6.124033951E0,1.321089265E1,1.472023796E1
1.775406292E0,2.099136094E0,6.267500650E0,1.425114740E1,1.570933286E1
1.785484292E0,1.995181370E0,5.945551786E0,1.513831970E1,1.638594087E1
1.795563292E0,2.373450322E0,5.692871963E0,1.610475101E1,1.724543600E1
1.805641292E0,2.655963809E0,6.170498266E0,1.711964405E1,1.839052487E1
1.815720292E0,2.490901881E0,6.066250597E0,1.644296683E1,1.770240511E1
1.825798292E0,2.645174527E0,4.786352978E0,1.498135471E1,1.594826360E1
1.835877292E0,3.236138287E0,3.303418981E0,1.341056103E1,1.418549665E1
1.845955292E0,3.510849249E0,1.846064507E0,1.070008656E1,1.141165496E1
1.856034292E0,3.218095534E0,6.161772466E-1,7.743192285E0,8.407903426E0
1.866112292E0,2.582539153E0,-3.547400486E-1,5.039826268E0,5.674081228E0
1.876191292E0,1.760094503E0,-1.110652885E0,2.842228618E0,3.522746941E0
1.886269292E0,7.503955503E-1,-1.389821472E0,1.437341502E0,2.135567325E0
1.896348292E0,1.047584233E-1,-1.369389254E0,2.086333323E-1,1.389146905E0
1.906426292E0,-1.085822099E-1,-1.557876298E0,-3.427140802E-1,1.598818813E0
1.916505292E0,-8.243901640E-2,-1.718656309E0,-7.914516288E-1,1.893930142E0
1.926583292E0,2.600100388E-1,-1.636879490E0,-1.720928537E0,2.389262379E0
1.936662292E0,2.586122619E-1,-1.056063865E0,-2.079943485E0,2.346980207E0
1.946739458E0,-9.604076560E-1,-4.204115894E-1,-5.074418396E0,5.181587674E0
1.956818458E0,-9.693006863E-1,2.801965275E-1,-6.295561438E0,6.375903679E0
1.966896458E0,-9.543702596E-1,6.121742427E-1,-6.206935190E0,6.309645343E0
1.976975458E0,-1.514164560E0,4.687423351E-1,-6.496502758E0,6.687074231E0
1.987053458E0,-1.439392120E0,4.434885031E-1,-7.331265882E0,7.484383152E0
1.997132458E0,-1.241109675E0,1.361185026E-1,-7.852138776E0,7.950783913E0
2.007210458E0,-1.284977387E0,-3.660739991E-1,-8.026181150E0,8.136630808E0
2.017289458E0,-1.320493960E0,-3.907314152E-1,-8.237963208E0,8.352269940E0
2.027367458E0,-1.363639103E0,-1.601765791E-1,-8.246916465E0,8.360430570E0
2.037446458E0,-1.792078481E0,-4.330623329E-2,-8.054099266E0,8.251177837E0
2.047524458E0,-2.254575258E0,4.414823234E-2,-8.170213274E0,8.475697235E0
2.057603458E0,-2.455295846E0,1.156286895E-2,-8.432262091E0,8.782462944E0
2.067681458E0,-2.490353997E0,-2.045119223E-1,-8.337207415E0,8.703603600E0
2.077760458E0,-2.348454937E0,-6.033917248E-1,-8.096427845E0,8.451713791E0
2.087838458E0,-2.277139371E0,-9.341441560E-1,-7.701006963E0,8.084769462E0
2.097917458E0,-2.150133462E0,-1.128018824E0,-7.233164222E0,7.629820773E0
2.107995458E0,-1.940740723E0,-1.330756993E0,-6.985714733E0,7.371404144E0
2.118074458E0,-1.883497212E0,-1.639884082E0,-6.934380273E0,7.370373893E0
2.128153458E0,-1.781024466E0,-1.784871641E0,-6.875902269E0,7.323649837E0
2.138231458E0,-1.674641978E0,-1.747517581E0,-6.966294376E0,7.374788185E0
2.148310458E0,-1.660988583E0,-1.665075641E0,-7.143680187E0,7.520872728E0
2.158388458E0,-1.786324820E0,-1.593625882E0,-7.533407051E0,7.904607619E0
2.168467458E0,-1.695644446E0,-1.616562170E0,-7.742002376E0,8.088701016E0
2.178545458E0,-1.497937952E0,-1.748787304E0,-7.606441698E0,7.947328510E0
2.188624458E0,-1.183159675E0,-1.963788254E0,-7.416144649E0,7.762443725E0
2.198702458E0,-8.493416950E-1,-2.384165930E0,-7.285590357E0,7.712681463E0
2.208781458E0,-5.370392758E-1,-2.771529641E0,-7.011348342E0,7.558359167E0
2.218859458E0,-2.775246423E-1,-3.164156431E0,-6.771506665E0,7.479452411E0
2.228938458E0,2.700771900E-1,-3.772619738E0,-6.324395227E0,7.369096035E0
2.239016458E0,1.203994328E0,-4.786170545E0,-5.247243964E0,7.203513035E0
2.249095458E0,2.349871133E0,-6.171979365E0,-3.535849312E0,7.491158387E0
2.259173458E0,3.587982502E0,-7.955339209E0,-9.040374273E-1,8.773729198E0
2.269252458E0,4.097907946E0,-8.973610765E0,3.228886278E0,1.037999260E1
2.279330458E0,3.562666397E0,-7.704600077E0,7.883753502E0,1.158477550E1
2.289409458E0,4.105084527E0,-5.883612816E0,1.233147376E1,1.426652949E1
2.299487458E0,6.989402572E0,-6.243862696E0,1.676612139E1,1.920782122E1
2.309566458E0,1.006583440E1,-7.483895752E0,1.995723465E1,2.357161286E1
2.319644458E0,1.318081691E1,-7.951243819E0,2.175281167E1,2.664847141E1
2.329723458E0,1.654453531E1,-7.920317895E0,2.260051761E1,2.910732691E1
2.339801458E0,1.820948085E1,-3.621456350E0,2.526560366E1,3.135364200E1
2.349880458E0,1.857475875E1,-1.704070722E0,2.400148241E1,3.039731365E1
2.359958458E0,1.560636359E1,-2.759853336E0,1.860609748E1,2.444099504E1
2.370037458E0,1.478578873E1,-6.696126115E-1,1.793881206E1,2.325658848E1
2.380115458E0,1.483895279E1,3.279864350E0,1.621111537E1,2.222053761E1
2.390194458E0,1.321173231E1,4.805916300E0,1.340641886E1,1.942623919E1
2.400272458E0,1.110148154E1,4.747641194E0,1.013050226E1,1.576102996E1
2.410351458E0,9.158454115E0,6.234806528E0,6.475515931E0,1.283286409E1
2.420429458E0,6.623012531E0,8.060532373E0,4.181938283E0,1.123944327E1
2.430508458E0,4.294224411E0,9.045723306E0,3.147623721E0,1.049633310E1
2.440586458E0,2.826431195E0,1.004215317E1,1.650079287E0,1.056202231E1
2.450665458E0,6.820168948E-1,1.021362394E1,-7.385980618E-1,1.026298145E1
2.460743458E0,-1.881020039E0,1.007659912E1,-2.742253217E0,1.061112807E1
2.470822458E0,-3.816553085E0,9.623784893E0,-4.048484356E0,1.111636356E1
2.480900458E0,-5.399664504E0,8.864032189E0,-4.771635828E0,1.142348248E1
2.490979458E0,-6.560971234E0,8.036769873E0,-4.491586066E0,1.130532436E1
2.501057458E0,-8.061225852E0,7.542027601E0,-5.168249835E0,1.218918984E1
2.511136458E0,-9.082872421E0,7.668899317E0,-6.110175465E0,1.336580833E1
2.521215458E0,-9.926509280E0,7.015908000E0,-4.978115339E0,1.313545522E1
2.531293458E0,-1.000265874E1,6.616331502E0,-4.169778121E0,1.269708919E1
2.541372458E0,-1.036769690E1,6.375786991E0,-3.726345166E0,1.272892168E1
2.551450458E0,-1.096034145E1,5.635835298E0,-3.180278959E0,1.272815377E1
2.561529458E0,-1.121081862E1,4.908373843E0,-2.499136807E0,1.249080753E1
2.571607458E0,-1.181888578E1,4.351351123E0,-2.370310952E0,1.281556443E1
2.581686458E0,-1.214175967E1,3.397351870E0,-2.843206272E0,1.292471081E1
2.591764458E0,-1.182865414E1,2.108403053E0,-5.953513355E0,1.340920369E1
2.601843458E0,-1.059771000E1,4.322654743E0,-5.537334273E0,1.271451423E1
2.611921458E0,-1.170122577E1,3.040340762E0,-4.566812249E0,1.292354946E1
2.622000458E0,-1.307269605E1,6.465120167E-1,-3.445208699E0,1.353450489E1
2.632078458E0,-1.231765562E1,1.003651032E0,-3.642795471E0,1.288417301E1
2.642157458E0,-1.134779784E1,1.124945015E0,-3.479878010E0,1.192256549E1
2.652235458E0,-1.106280338E1,1.288196572E0,-2.332268382E0,1.137912759E1
2.662314458E0,-1.112279113E1,2.053131370E0,-9.826737070E-1,1.135330254E1
2.672392458E0,-1.139016325E1,2.258738184E0,1.762025546E-1,1.161330119E1
2.682471458E0,-1.117405835E1,1.823568660E0,8.098415606E-1,1.135080728E1
2.692549458E0,-1.009907699E1,2.614013253E0,2.153950524E0,1.065194462E1
2.702628458E0,-9.086262052E0,3.361606963E0,2.876276954E0,1.010611343E1
2.712706458E0,-8.046856320E0,3.439477842E0,3.229500820E0,9.327999786E0
2.722785458E0,-7.192514963E0,3.046763929E0,3.838790631E0,8.703525461E0
2.732863458E0,-5.188145571E0,2.737204146E0,4.541943457E0,7.418786381E0
2.742942458E0,-1.284299988E0,4.263341465E0,2.810356615E0,5.265321567E0
2.753020458E0,4.832627842E0,4.649391307E0,1.635127957E0,6.902519455E0
2.763099458E0,1.044423345E1,3.235380488E0,-7.187982202E-2,1.093411478E1
2.773177458E0,1.115734116E1,-1.878159435E0,-5.080348642E0,1.240256775E1
2.783256458E0,1.314912266E1,-9.255422001E0,-4.754532430E0,1.676806017E1
2.793334458E0,1.751406681E1,-1.073090606E1,-1.369974268E0,2.058571618E1
2.803413458E0,2.347637204E1,-8.281561217E0,-4.665237261E0,2.532762798E1
2.813491458E0,2.859564443E1,-9.475321748E0,-3.826852663E0,3.036671539E1
2.823570458E0,3.052105068E1,-9.200219023E0,3.447113721E0,3.206339280E1
2.833649458E0,2.902276248E1,-7.479448945E0,7.598391252E0,3.091922457E1
2.843727458E0,2.677557459E1,-7.556719900E0,6.906898359E0,2.866601918E1
2.853806458E0,2.582132303E1,-8.129044783E0,5.057852649E0,2.753913517E1
2.863884458E0,2.441583248E1,-7.877605739E0,2.818015882E0,2.580950913E1
2.873963458E0,2.258148375E1,-7.319591331E0,3.596525869E-1,2.374087563E1
2.884041458E0,2.015247786E1,-6.850390282E0,-1.530592751E0,2.133993733E1
2.894120458E0,1.681504270E1,-6.643660803E0,-4.011402776E0,1.851959077E1
2.904198458E0,1.241677294E1,-5.845184914E0,-6.275566299E0,1.509056557E1
2.914277458E0,7.722935191E0,-4.542701256E0,-6.774208664E0,1.123253158E1
2.924355458E0,2.487071078E0,-3.001088111E0,-5.221419736E0,6.515771363E0
2.934434458E0,-1.682212953E0,-1.607836078E0,-4.124744912E0,4.735873506E0
2.944512458E0,-4.156145337E0,-4.210454276E-1,-4.315144579E0,6.005938399E0
2.954591708E0,-7.013513566E0,1.230686867E-1,-3.510462456E0,7.843969983E0
2.964669708E0,-9.287978128E0,-4.576469511E-2,-2.811902618E0,9.704402529E0
2.974748708E0,-1.094631047E1,-4.924296981E-1,-2.583821447E0,1.125790092E1
2.984826708E0,-1.137455353E1,-1.120464806E0,-3.704128085E0,1.201484391E1
2.994905708E0,-1.203287750E1,-1.643848786E0,-3.931784749E0,1.276523839E1
3.004983708E0,-1.230872341E1,-1.454989568E0,-3.860495496E0,1.298172146E1
3.015062708E0,-1.138735191E1,-1.268858076E0,-4.090807965E0,1.216620295E1
3.025140708E0,-1.172618052E1,-6.148867661E-1,-3.906158742E0,1.237495339E1
3.035219708E0,-1.169179304E1,4.620844030E-1,-4.723919917E0,1.261851679E1
3.045297708E0,-1.017140354E1,8.152106202E-1,-5.353136455E0,1.152293748E1
3.055376708E0,-8.107848042E0,5.340276673E-1,-7.069066207E0,1.077005490E1
3.065454708E0,-6.469388634E0,1.819633631E0,-8.869929691E0,1.112832910E1
3.075533708E0,-5.950475727E0,3.516175770E0,-8.883023946E0,1.125521070E1
3.085611708E0,-6.006585608E0,4.129017180E0,-9.864009562E0,1.226484970E1
3.095690708E0,-5.127566078E0,5.791584658E0,-9.623321208E0,1.234676872E1
3.105768708E0,-3.819686608E0,8.297388461E0,-8.511331065E0,1.248516790E1
3.115847708E0,-2.351084722E0,9.790542805E0,-9.423773865E0,1.379093331E1
3.125925708E0,-1.123113302E0,1.084625291E1,-1.010537327E1,1.486678024E1
3.136004708E0,-1.630858612E-1,1.165183083E1,-1.002402213E1,1.537116711E1
3.146082708E0,3.332836908E-1,1.248587650E1,-9.565879916E0,1.573258557E1
3.156161708E0,4.722462791E-1,1.336099652E1,-8.627593008E0,1.591146146E1
3.166240708E0,5.041141891E-1,1.370933621E1,-7.279694025E0,1.553042097E1
3.176318708E0,4.763247120E-1,1.335507329E1,-5.212609736E0,1.434420330E1
3.186396708E0,-2.064593375E-2,1.165276405E1,-2.842613364E0,1.199448986E1
3.196475708E0,-5.450540543E-2,8.687549188E0,-9.493352222E-1,8.739434712E0
3.206554708E0,2.146933866E-1,5.851316305E0,1.471281080E0,6.037272875E0
3.216632708E0,4.098711061E-1,3.311984275E0,3.780080493E0,5.042444119E0
3.226711708E0,6.921337473E-1,1.424543993E0,4.671497290E0,4.932672870E0
3.236789708E0,2.667371142E-1,1.715605232E-1,5.971319881E0,5.979736016E0
3.246868708E0,-1.424060136E-1,-6.242853612E-1,7.970598103E0,7.996276996E0
3.256946708E0,8.850345612E-1,-1.607723957E0,9.512766148E0,9.688177449E0
3.267025708E0,2.897470188E0,-3.484309614E0,1.168541490E1,1.253334226E1
3.277103708E0,4.708620093E0,-5.640510732E0,1.460717968E1,1.635102941E1
3.287182708E0,5.583405070E0,-6.643802891E0,1.743113224E1,1.947200299E1
3.297260708E0,6.098476356E0,-6.789828331E0,1.920459392E1,2.126286929E1
3.307339708E0,7.425969726E0,-7.837896128E0,2.000197521E1,2.273008259E1
3.317417708E0,9.512184350E0,-9.246572825E0,1.950570798E1,2.358926459E1
3.327496708E0,1.100021712E1,-9.880863576E0,1.708676632E1,2.259632326E1
3.337574708E0,1.113977846E1,-9.057727640E0,1.470591927E1,2.055240025E1
3.347653708E0,9.158672801E0,-7.086596160E0,1.391681530E1,1.810466461E1
3.357731708E0,6.394940715E0,-4.583942837E0,1.272261272E1,1.495903316E1
3.367810708E0,4.830440399E0,-2.561584486E0,1.071969578E1,1.203356751E1
3.377888708E0,3.545782854E0,-1.243305159E0,8.914963192E0,9.674448433E0
3.387967708E0,2.275181431E0,-8.611112630E-1,7.135371879E0,7.538666659E0
3.398045708E0,1.555901693E0,-1.036786472E0,5.498398249E0,5.807593268E0
3.408124708E0,1.246705899E0,-1.052267560E0,3.999534098E0,4.319469368E0
3.418202708E0,4.387142515E-1,-5.839538258E-1,2.330116607E0,2.441908202E0
3.428281708E0,-5.484235123E-1,4.092954478E-1,1.406974572E-1,6.986321542E-1
3.438359708E0,-1.129415139E0,1.303839628E0,-1.898607879E0,2.565207245E0
3.448438708E0,-1.373580831E0,1.548942044E0,-3.739351712E0,4.274189629E0
3.458516708E0,-1.493532367E0,1.580595362E0,-5.401393526E0,5.822711795E0
3.468595708E0,-1.742398928E0,1.603244551E0,-6.640782219E0,7.050272023E0
3.478674708E0,-2.091992550E0,1.565836989E0,-7.744131932E0,8.173117991E0
3.488752708E0,-2.225973603E0,1.190558596E0,-8.724051601E0,9.081930664E0
3.498831708E0,-2.234798221E0,5.470839152E-1,-9.197708228E0,9.481110723E0
3.508909708E0,-2.206535704E0,-7.556912273E-2,-9.312801313E0,9.570934061E0
3.518988708E0,-2.087111587E0,-8.453389835E-1,-9.524355914E0,9.786929465E0
3.529066708E0,-1.737968201E0,-1.610882477E0,-9.888239254E0,1.016822263E1
3.539145708E0,-1.381515356E0,-2.062983929E0,-9.972578323E0,1.027700374E1
3.549223708E0,-1.228490507E0,-2.308438640E0,-9.671888182E0,1.001915660E1
3.559302708E0,-1.362867855E0,-2.457792023E0,-9.239229307E0,9.657199832E0
3.569380708E0,-1.487563675E0,-2.319681666E0,-9.098473962E0,9.506629116E0
3.579459708E0,-1.661108598E0,-2.168941616E0,-8.918586711E0,9.327635200E0
3.589537708E0,-1.711777206E0,-1.974212670E0,-8.445934635E0,8.840899770E0
3.599616708E0,-1.551953360E0,-1.643214363E0,-8.131457929E0,8.439746485E0
3.609694708E0,-1.380228677E0,-1.513262627E0,-7.954568546E0,8.214021897E0
3.619773708E0,-1.270922143E0,-1.666980664E0,-7.742677730E0,8.021416711E0
3.629851708E0,-1.077030811E0,-1.764859253E0,-7.611451008E0,7.887262516E0
3.639930708E0,-8.384022854E-1,-1.330483636E0,-7.484843001E0,7.648266461E0
3.650008708E0,-7.623285480E-1,-1.120606893E0,-7.058440062E0,7.187383442E0
3.660087708E0,-6.395343880E-1,-1.346952611E0,-6.689525778E0,6.853688110E0
3.670165708E0,-4.464214665E-1,-1.384621251E0,-6.550488346E0,6.710094314E0
3.680244708E0,-1.594469927E-1,-1.354575334E0,-6.290892436E0,6.437050980E0
3.690322708E0,7.007522509E-2,-1.228512872E0,-5.853011413E0,5.980961211E0
3.700401708E0,1.142331053E-1,-1.020198213E0,-5.026281193E0,5.130044466E0
3.710479708E0,1.011770037E-1,-1.024912823E0,-4.131058443E0,4.257502430E0
3.720558708E0,3.797412810E-1,-1.082931528E0,-3.299915330E0,3.493763776E0
3.730636708E0,8.358314109E-1,-9.878683734E-1,-2.253618654E0,2.598710278E0
3.740715708E0,9.863054127E-1,-6.695684651E-1,-5.070781428E-1,1.295472323E0
3.750793708E0,9.917439079E-1,-7.574541628E-2,1.755192636E0,2.017422746E0
3.760872708E0,1.162317421E0,5.956546891E-1,3.677276502E0,3.902326071E0
3.770950708E0,1.667424760E0,1.671435950E0,5.798023027E0,6.260277509E0
3.781029708E0,1.740056241E0,3.146912992E0,8.292356932E0,9.038475567E0
3.791107708E0,1.443006284E0,4.989364212E0,1.045956368E1,1.167812034E1
3.801186708E0,7.774025238E-1,6.939103653E0,1.238243224E1,1.421548952E1
3.811264708E0,1.095516491E0,7.334671885E0,1.486475304E1,1.661199720E1
3.821343708E0,2.369915096E0,7.121325113E0,1.798055884E1,1.948410289E1
3.831422708E0,3.467565820E0,7.386568848E0,1.997603696E1,2.157840274E1
3.841500708E0,4.362156778E0,7.605212029E0,2.089209451E1,2.265716829E1
3.851579708E0,5.107347575E0,6.352151960E0,2.078476536E1,2.232579908E1
3.861657708E0,5.806237196E0,5.472558818E0,2.014095651E1,2.166378128E1
3.871736708E0,6.346818715E0,4.371165583E0,1.898916495E1,2.049335458E1
3.881814708E0,6.300045083E0,3.879429365E0,1.822197518E1,1.966674654E1
3.891893708E0,5.815006850E0,3.266021652E0,1.590806354E1,1.724957065E1
3.901971708E0,5.563836193E0,1.792411626E0,1.294280717E1,1.420159393E1
3.912050708E0,4.076403349E0,1.862416830E0,8.980225720E0,1.003643934E1
3.922128708E0,1.768270957E0,3.007606003E0,4.225913145E0,5.480038134E0
3.932207708E0,-3.903186017E-1,3.561868837E0,-1.331691670E-1,3.585664827E0
3.942285708E0,-1.796372383E0,3.336311616E0,-4.060428171E0,5.553828038E0
3.952365667E0,-2.113185199E0,2.521262087E0,-6.740025256E0,7.500016977E0
3.962443667E0,-1.986930218E0,1.638694466E0,-8.136012325E0,8.533926869E0
3.972522667E0,-1.798856427E0,9.098524833E-1,-8.999829095E0,9.222832522E0
3.982600667E0,-1.894542895E0,6.074897459E-1,-9.423187389E0,9.630929194E0
3.992679667E0,-1.930510873E0,4.457253554E-1,-9.730758533E0,9.930418166E0
4.002757667E0,-2.095226353E0,-7.444294900E-2,-1.007760250E1,1.029337590E1
4.012836667E0,-2.300782880E0,-6.301310420E-2,-1.032333993E1,1.057681047E1
4.022914667E0,-2.638939348E0,5.634727836E-2,-1.008734162E1,1.042696681E1
4.032993667E0,-2.856775905E0,1.504617226E-1,-9.692922955E0,1.010626354E1
4.043071667E0,-2.742845247E0,-1.280335575E-1,-9.040809306E0,9.448588548E0
4.053150667E0,-2.689668329E0,-6.079472905E-1,-8.617801260E0,9.048227130E0
4.063228667E0,-2.580875035E0,-9.511256397E-1,-8.253958851E0,8.700194977E0
4.073307667E0,-2.458142271E0,-1.193058573E0,-7.931014207E0,8.388494414E0
4.083385667E0,-2.244910542E0,-1.281822230E0,-8.177678415E0,8.576544515E0
4.093464667E0,-1.960711157E0,-1.432845578E0,-8.466298149E0,8.807703391E0
4.103542667E0,-1.789762837E0,-1.744434929E0,-8.849052207E0,9.195217736E0
4.113621667E0,-1.693421773E0,-1.850002899E0,-9.195901439E0,9.531777971E0
4.123700667E0,-1.635316968E0,-1.945280939E0,-9.250396319E0,9.593133564E0
4.133778667E0,-1.372247227E0,-2.179245579E0,-9.289703642E0,9.640060555E0
4.143856667E0,-1.096770718E0,-2.446655123E0,-9.137321693E0,9.522587622E0
4.153935667E0,-8.910032527E-1,-2.752683772E0,-8.900705341E0,9.359151154E0
4.164014667E0,-5.939695215E-1,-3.095902760E0,-8.885884404E0,9.428486375E0
4.174092667E0,-3.718549950E-1,-3.482435874E0,-8.812510618E0,9.482930936E0
4.184171667E0,-2.657457919E-1,-3.746188569E0,-8.605693431E0,9.389489286E0
4.194249667E0,-9.172015563E-2,-4.057920885E0,-8.465797042E0,9.388549092E0
4.204328667E0,-8.153510995E-2,-4.288986768E0,-8.370706113E0,9.405890511E0
4.214406667E0,-6.989841990E-2,-4.303042597E0,-8.047188442E0,9.125694669E0
4.224485667E0,-5.535303243E-2,-4.192583139E0,-7.543160791E0,8.630184938E0
4.234563667E0,4.285190463E-2,-3.970637743E0,-6.883659185E0,7.946858760E0
4.244642667E0,3.305364496E-1,-3.829509638E0,-5.975132850E0,7.104689366E0
4.254720667E0,5.567871503E-1,-3.498058172E0,-4.553442006E0,5.768904316E0
4.264799667E0,7.260171926E-1,-2.629567139E0,-2.157569366E0,3.478049722E0
4.274877667E0,7.095391542E-1,-1.567319258E0,8.302286088E-1,1.910291866E0
4.284956667E0,1.698776945E-1,-6.150896645E-1,3.535982628E0,3.593099898E0
4.295034667E0,-1.520071417E-1,-6.311309159E-2,5.788793782E0,5.791133126E0
4.305113667E0,8.823062503E-1,-5.323995101E-1,8.150029855E0,8.214919367E0
4.315191667E0,2.301239840E0,-1.624647700E0,1.034057752E1,1.071740306E1
4.325270667E0,2.243311767E0,-1.351835328E0,1.262477243E1,1.289359474E1
4.335348667E0,2.378591194E0,1.341351271E-3,1.452155773E1,1.471507176E1
4.345427667E0,3.860711258E0,-9.358763936E-1,1.438085735E1,1.491945087E1
4.355505667E0,6.224416611E0,-4.455483895E0,1.351400763E1,1.553135864E1
4.365584667E0,8.632483034E0,-6.997120897E0,1.193295677E1,1.630567145E1
4.375662667E0,1.047616626E1,-7.736876707E0,1.000265757E1,1.642140308E1
4.385741667E0,1.203848147E1,-7.460434384E0,9.137026409E0,1.685432790E1
4.395819667E0,1.329457098E1,-5.379393961E0,8.705383780E0,1.677698435E1
4.405898667E0,1.369830836E1,-3.108579816E0,7.472002516E0,1.591030302E1
4.415977667E0,1.250395258E1,-1.690988747E0,5.275935667E0,1.367639464E1
4.426055667E0,1.035856355E1,-9.224216580E-2,2.938609443E0,1.076771902E1
4.436134667E0,8.511236340E0,1.086930293E0,1.063124232E0,8.645969849E0
4.446212667E0,6.215068667E0,1.764230385E0,-8.471621454E-1,6.515924423E0
4.456291667E0,3.696079978E0,2.578125089E0,-2.351334983E0,5.082962953E0
4.466369667E0,1.388657584E0,3.404047809E0,-3.138630996E0,4.833933791E0
4.476448667E0,-9.580259389E-1,3.908096217E0,-4.215011011E0,5.827293331E0
4.486526667E0,-2.337813882E0,4.150124459E0,-4.112253213E0,6.292816004E0
4.496605667E0,-3.667097084E0,4.081370266E0,-3.980095614E0,6.778373357E0
4.506683667E0,-4.963500808E0,3.907136396E0,-3.827259922E0,7.385795394E0
4.516762667E0,-5.797542386E0,3.638518525E0,-3.756370618E0,7.807729183E0
4.526840667E0,-6.418185151E0,3.608042545E0,-3.182666377E0,8.021249086E0
4.536919667E0,-6.747409120E0,3.770332015E0,-2.559948435E0,8.142252104E0
4.546997667E0,-7.165457557E0,3.951255977E0,-1.992405989E0,8.421750853E0
4.557076667E0,-7.282681952E0,4.351553437E0,-1.518283339E0,8.618506717E0
4.567154667E0,-7.208937453E0,4.760566757E0,-1.157725091E0,8.716197705E0
4.577233667E0,-7.222732789E0,5.467903265E0,-1.055899558E0,9.120348619E0
4.587311667E0,-7.353847829E0,6.442704281E0,-1.038194116E0,9.831854523E0
4.597390667E0,-7.310682514E0,7.256579981E0,-1.080208772E0,1.035716577E1
4.607468667E0,-6.836983786E0,7.835334463E0,-1.279272552E0,1.047727788E1
4.617547667E0,-6.411973069E0,8.220090609E0,-2.126725888E0,1.063984263E1
4.627625667E0,-5.847830195E0,9.236596305E0,-3.240470781E0,1.140230153E1
4.637704667E0,-5.200942202E0,9.705202108E0,-3.096920468E0,1.143816699E1
4.647782667E0,-5.921453657E0,8.767879990E0,-3.531853909E0,1.115407213E1
4.657861667E0,-7.318107308E0,7.555434097E0,-5.004005055E0,1.164814773E1
4.667939667E0,-7.713735182E0,6.399143693E0,-5.282482209E0,1.132940284E1
4.678018667E0,-7.604303956E0,5.922754662E0,-5.204922402E0,1.095425391E1
4.688096667E0,-7.900305215E0,5.698734382E0,-5.142332636E0,1.101517049E1
4.698175667E0,-8.104675927E0,5.376848668E0,-4.630787805E0,1.077220819E1
4.708254667E0,-8.003148383E0,5.609932718E0,-3.801995273E0,1.048698704E1
4.718332667E0,-7.549099224E0,5.588719019E0,-2.522366041E0,9.725482497E0
4.728411667E0,-6.961069888E0,5.446881355E0,-1.778830590E0,9.016055055E0
4.738489667E0,-6.142191310E0,5.074487393E0,-1.144502271E0,8.049026142E0
4.748568667E0,-4.351842874E0,3.082950300E0,-7.953604925E-1,5.392190396E0
4.758646667E0,-2.203119761E0,7.308892096E0,1.270033951E0,7.738645010E0
4.768725667E0,-8.490975738E-2,7.775302854E0,1.750868474E0,7.970450712E0
4.778803667E0,5.180527233E0,5.148904907E0,1.606855792E0,7.478707755E0
4.788882667E0,1.181531898E1,1.375236909E0,2.329723089E0,1.212108282E1
4.798960667E0,1.754833032E1,6.777747399E-1,-2.386950374E-1,1.756303650E1
4.809039667E0,2.358140207E1,2.833384558E-1,-8.157348230E-1,2.359720804E1
4.819117667E0,3.039665234E1,-2.280935968E0,5.827478376E-1,3.048768173E1
4.829196667E0,3.646127682E1,-9.449254276E0,-3.336387630E0,3.781328598E1
4.839274667E0,3.631678043E1,-1.044103385E1,-9.937815456E0,3.907280262E1
4.849353667E0,3.127881007E1,-6.165519946E0,-1.125875761E1,3.381031231E1
4.859431667E0,2.978395769E1,-8.465406448E0,-8.373702226E0,3.207594318E1
4.869510667E0,2.818234919E1,-1.057646940E1,-4.300882928E0,3.040730348E1
4.879588667E0,2.263596577E1,-9.287231439E0,-3.269120384E0,2.468454500E1
4.889667667E0,1.631228624E1,-9.412747770E0,-2.679736541E0,1.902292015E1
4.899745667E0,1.021758251E1,-9.081430498E0,-9.512414145E-1,1.370314681E1
4.909824667E0,6.098583360E0,-6.600552206E0,1.662762775E0,9.139189705E0
4.919902667E0,1.940500256E0,-5.516819901E0,8.455281410E-1,5.908955991E0
4.929981667E0,-2.983894374E0,-4.621877233E0,-1.964217732E0,5.841534567E0
4.940059667E0,-6.708080748E0,-2.810763288E0,-3.617621453E0,8.123171952E0
4.950141792E0,-8.336577669E0,-1.072580495E0,-3.754175574E0,9.205584739E0
4.960220792E0,-8.471346635E0,7.597293144E-1,-3.050787398E0,9.035939696E0
4.970298792E0,-8.344145136E0,2.208337231E0,-2.098360168E0,8.882827634E0
4.980377792E0,-7.841906734E0,2.681698574E0,-1.163385415E0,8.369018705E0
4.990455792E0,-7.088118190E0,3.424649304E0,8.618820722E-1,7.919121355E0
5.000534792E0,-6.616431490E0,3.469271745E0,2.017775888E0,7.738503191E0
5.010612792E0,-7.222379032E0,4.500113645E0,2.392284204E0,8.839502555E0
5.020691792E0,-7.721761655E0,5.898720852E0,2.128034495E0,9.947313283E0
5.030769792E0,-8.062214032E0,8.120472765E0,1.391300526E0,1.152723255E1
5.040848792E0,-7.948016156E0,8.860020415E0,1.077260606E0,1.195120969E1
5.050926792E0,-6.937633079E0,8.634127271E0,1.160985718E0,1.113673176E1
5.061005792E0,-6.405834662E0,9.144458220E0,1.508167655E0,1.126633940E1
5.071083792E0,-6.100577846E0,9.272888219E0,1.137824897E0,1.115787397E1
5.081162792E0,-6.230900588E0,9.174905257E0,-1.985480547E-2,1.109068992E1
5.091240792E0,-7.486451570E0,9.055544289E0,-2.417443603E0,1.199557723E1
5.101319792E0,-7.710683520E0,9.239324616E0,-3.613013263E0,1.256477714E1
5.111397792E0,-8.083582681E0,9.393883483E0,-3.123487877E0,1.278067026E1
5.121476792E0,-8.030267769E0,8.673397171E0,-1.210115266E0,1.188180954E1
5.131554792E0,-7.087587848E0,8.121033513E0,1.394803008E0,1.086878844E1
5.141633792E0,-7.725816114E0,7.648998903E0,3.121009827E0,1.131088508E1
5.151711792E0,-9.249364870E0,7.140733775E0,4.923608179E0,1.268001368E1
5.161790792E0,-1.012436502E1,7.252273507E0,4.056779509E0,1.309792725E1
5.171868792E0,-9.646776145E0,7.669114494E0,3.095821191E0,1.270667997E1
5.181947792E0,-8.922148835E0,7.587193834E0,3.357111332E0,1.218361386E1
5.192025792E0,-8.022618442E0,7.808331437E0,4.203106957E0,1.195820031E1
5.202104792E0,-3.769374241E0,1.102751192E1,9.042450035E0,1.475059673E1
5.212182792E0,1.966167194E0,1.530951331E1,1.059662358E1,1.872259177E1
5.222261792E0,3.939259830E0,1.528280791E1,4.522490062E0,1.641751814E1
5.232340792E0,3.866729212E0,1.351778260E1,1.764506666E0,1.417023376E1
5.242418792E0,9.980227650E0,1.091858531E1,1.792377712E0,1.490077404E1
5.252496792E0,-2.013661788E0,3.378901858E0,2.634713858E0,4.734292837E0
5.262575792E0,-9.837492439E0,-2.109623952E0,-1.795985444E0,1.022019248E1
5.272654792E0,-8.531395785E0,-5.775880791E0,-1.511762524E1,1.829448293E1
5.282732792E0,1.634656963E0,-8.260094334E0,-3.173183830E1,3.283002930E1
5.292811792E0,3.731478437E0,-7.195961312E0,-2.399093169E1,2.532332115E1
5.302889792E0,-9.413169354E-1,-1.130743918E0,-6.498576765E0,6.663044301E0
5.312968792E0,2.254480534E0,-1.787907223E0,2.639777254E0,3.904832732E0
5.323046792E0,8.601497469E0,2.960950484E0,3.034285094E0,9.589571028E0
5.333125792E0,4.481079789E0,3.419159353E0,-4.191667757E0,7.024301057E0
5.343203792E0,6.317013702E0,-4.116729257E0,-1.741791403E1,1.897988016E1
5.353282792E0,1.199759891E1,-1.113193618E1,-1.055019318E1,1.947226127E1
5.363360792E0,4.508835937E0,-1.623087896E1,-1.061462599E0,1.687891395E1
5.373439792E0,2.667071764E0,-2.171862885E1,1.001585941E1,2.406511065E1
5.383517792E0,4.994026782E0,-3.050106256E1,1.783257634E1,3.568271149E1
5.393596792E0,6.575778723E0,-4.332302181E1,2.092554760E1,4.855927952E1
5.403674792E0,3.422851285E0,-5.110914611E1,2.278896869E1,5.606422942E1
5.413753792E0,-1.853766167E0,-4.430278127E1,2.447407543E1,5.064734194E1
5.423831792E0,-5.633935538E0,-2.867348724E1,1.748522834E1,3.405353594E1
5.433910792E0,-5.067557858E0,-1.268135477E1,7.065535074E0,1.537591257E1
5.443988792E0,-3.993950007E0,1.579341134E0,-1.490739444E0,4.546235714E0
5.454067792E0,-5.635961013E0,1.146504971E1,-1.522156768E1,1.987228080E1
5.464145792E0,-5.386637492E0,1.380430084E1,-1.788463410E1,2.322573405E1
5.474224792E0,-5.669376097E0,1.553142801E1,-1.547115257E1,2.264340176E1
5.484302792E0,-6.689704703E0,1.714578110E1,-1.341640474E1,2.277564214E1
5.494381792E0,-6.176227368E0,1.746079166E1,-9.498986599E0,2.081479705E1
5.504459792E0,-4.327336901E0,1.638162486E1,-6.457178478E0,1.813225390E1
5.514538792E0,-2.914874425E0,1.553190748E1,-3.832223039E0,1.626107550E1
5.524616792E0,-2.110795295E0,1.513176380E1,-1.205006627E0,1.532572261E1
5.534695792E0,-1.439230299E0,1.457966269E1,1.792626218E-1,1.465162390E1
5.544774792E0,-5.747339362E-1,1.362803769E1,8.796738338E-1,1.366848772E1
5.554852792E0,3.714059289E-1,1.249797205E1,1.181114027E0,1.255915117E1
5.564931792E0,1.126162113E0,1.150325074E1,1.197043012E0,1.162006587E1
5.575009792E0,1.576258189E0,1.083960580E1,1.477909484E0,1.105286661E1
5.585088792E0,1.892194361E0,1.005018257E1,2.032179919E0,1.042671206E1
5.595166792E0,2.052580563E0,9.275093204E0,2.533386873E0,9.831504969E0
5.605245792E0,2.161834033E0,8.991033713E0,2.688388374E0,9.630142557E0
5.615323792E0,2.157453007E0,8.919390703E0,2.371726563E0,9.478144380E0
5.625402792E0,2.047944159E0,8.908806658E0,1.815741431E0,9.319754734E0
5.635480792E0,1.945840810E0,8.934546686E0,1.325707484E0,9.239584476E0
5.645559792E0,1.825973182E0,8.877048676E0,9.894043639E-1,9.116747899E0
5.655637792E0,1.869346366E0,8.295717326E0,4.832548320E-1,8.517447800E0
5.665716792E0,1.884944690E0,7.725347167E0,-1.108917432E0,8.028929145E0
5.675794792E0,1.697881737E0,7.601984950E0,-3.860902462E0,8.693649717E0
5.685873792E0,1.258347413E0,7.678830228E0,-5.521423999E0,9.541173663E0
5.695951792E0,7.828150720E-1,7.653030558E0,-6.172924275E0,9.863400543E0
5.706030792E0,5.609330454E-1,7.218871872E0,-7.004267364E0,1.007405173E1
5.716108792E0,7.039024383E-1,6.270178090E0,-7.860285702E0,1.007941979E1
5.726187792E0,9.149794681E-1,5.513118614E0,-6.781210120E0,8.787290536E0
5.736265792E0,9.189066774E-1,5.995189385E0,-3.034860460E0,6.782113480E0
5.746344792E0,9.413840322E-1,6.042917283E0,3.717789812E-1,6.127093340E0
5.756422792E0,6.824379674E-1,4.798837368E0,1.929030504E0,5.216868826E0
5.766501792E0,1.779600084E-3,9.910995448E-1,2.338524903E0,2.539877989E0
5.776579792E0,-6.545833670E-1,-6.569042730E0,2.713072979E0,7.137336112E0
5.786658792E0,-1.442238691E0,-1.882076514E1,2.285780971E0,1.901383832E1
5.796736792E0,-4.384069803E0,-3.560915273E1,1.998036858E0,3.593360513E1
5.806815792E0,-1.040303981E1,-5.553845407E1,4.846254194E0,5.671180915E1
5.816893792E0,-1.363298444E1,-6.909302500E1,5.670335040E0,7.065307543E1
5.826972792E0,-6.183222392E0,-6.284041955E1,-1.469159710E-1,6.314405873E1
5.837051792E0,9.261837566E-1,-3.446253713E1,-1.728714105E0,3.451829564E1
5.847129792E0,9.147088882E-1,-1.737309512E1,-3.721051097E-2,1.739719837E1
5.857208792E0,-4.888184577E-2,-9.332289498E0,4.009236968E-1,9.341025453E0
5.867286792E0,-7.333184646E-1,-3.946559494E0,9.129963119E-2,4.015149241E0
5.877365792E0,-1.522288827E0,-7.409439647E-1,-6.791143370E-1,1.824159400E0
5.887443792E0,-2.356676853E0,1.408263883E0,-1.868480101E0,3.320896090E0
5.897522792E0,-3.225753924E0,3.355817050E0,-3.281501278E0,5.695195088E0
5.907600792E0,-4.003685621E0,5.504277624E0,-4.608765437E0,8.219932455E0
5.917679792E0,-4.175353441E0,8.322951903E0,-5.666265378E0,1.090007652E1
5.927757792E0,-3.304344011E0,1.080237541E1,-6.409131907E0,1.298795502E1
5.937836792E0,-1.767547949E0,1.157265953E1,-6.771585603E0,1.352423920E1
5.947914792E0,-4.491168867E-1,1.142644523E1,-6.640887469E0,1.322371895E1
5.957990042E0,3.761661471E-1,1.130021203E1,-5.810685173E0,1.271221283E1
5.968068042E0,7.944455494E-1,1.155013606E1,-4.518942264E0,1.242809824E1
5.978147042E0,8.751594910E-1,1.168821922E1,-3.089054793E0,1.212116464E1
5.988225042E0,8.250041217E-1,1.151767933E1,-1.619647745E0,1.166022417E1
5.998304042E0,7.385143004E-1,1.133325581E1,-4.447589569E-1,1.136599759E1
6.008382042E0,7.038511290E-1,1.124135629E1,2.604409786E-1,1.126638039E1
6.018461042E0,7.550142659E-1,1.083001403E1,5.676569049E-1,1.087113079E1
6.028539042E0,1.004029931E0,1.019665883E1,6.459452753E-1,1.026631252E1
6.038618042E0,1.386279814E0,9.292543634E0,8.647774673E-1,9.435092950E0
6.048696042E0,1.513501193E0,8.335698248E0,1.178287629E0,8.553532187E0
6.058775042E0,1.535032834E0,7.563037816E0,1.396521943E0,7.842585055E0
6.068853042E0,1.710665651E0,7.215464700E0,1.421304197E0,7.550457829E0
6.078932042E0,1.868259953E0,7.341169896E0,1.175651704E0,7.665854657E0
6.089010042E0,2.017131087E0,7.691851392E0,8.844567101E-1,8.000978649E0
6.099089042E0,2.111826013E0,8.047987171E0,6.057224250E-1,8.342470035E0
6.109167042E0,2.079325873E0,8.369305705E0,3.059869878E-1,8.629165783E0
6.119246042E0,1.971350604E0,8.468721235E0,7.670348257E-2,8.695478479E0
6.129325042E0,1.805257081E0,8.332779318E0,-2.178438663E-2,8.526115109E0
6.139403042E0,1.557899248E0,7.907958636E0,-6.583979443E-2,8.060222995E0
6.149482042E0,1.213789876E0,7.088880667E0,-6.916911131E-1,7.225230209E0
6.159560042E0,5.610491127E-1,6.585241857E0,-2.585147595E0,7.096701664E0
6.169639042E0,-1.308788127E-1,6.423712524E0,-4.271215618E0,7.715211903E0
6.179717042E0,-5.538662468E-1,6.512178558E0,-5.274897786E0,8.398796583E0
6.189796042E0,-8.126105095E-1,6.807437221E0,-6.466566768E0,9.424331441E0
6.199874042E0,-8.354051489E-1,7.266057733E0,-8.253929615E0,1.102818439E1
6.209953042E0,-5.997262515E-1,7.592783772E0,-1.095447084E1,1.334205638E1
6.220031042E0,-4.146649459E-1,7.018301851E0,-1.323003527E1,1.498206731E1
6.230110042E0,-6.104439054E-1,6.161307027E0,-1.195199882E1,1.346048371E1
6.240188042E0,-4.104033490E-1,5.194160601E0,-7.173921987E0,8.866391145E0
6.250267042E0,-2.992917797E-1,3.981164485E0,-8.778939414E-1,4.087779838E0
6.260345042E0,-9.057332660E-1,2.055312674E0,3.190237644E0,3.901573934E0
6.270424042E0,-2.751809029E0,-1.982755744E0,5.181468050E0,6.192849460E0
6.280502042E0,-5.214967918E0,-8.754527289E0,8.472900825E0,1.325245965E1
6.290581042E0,-6.031290094E0,-1.829953732E1,1.125823954E1,2.231585723E1
6.300659042E0,-5.577157320E0,-3.240044402E1,8.855860705E0,3.404878449E1
6.310738042E0,-6.566477557E0,-4.491392289E1,4.231811524E0,4.558823670E1
6.320816042E0,-7.015885196E0,-4.876508155E1,-4.064270669E0,4.943454379E1
6.330895042E0,-2.015897763E0,-4.044710855E1,-9.094052882E0,4.150583371E1
6.340973042E0,1.475793523E0,-2.536844215E1,-5.060910158E0,2.591039627E1
6.351052042E0,9.880546072E-1,-1.690872445E1,3.857422784E-2,1.693761207E1
6.361130042E0,7.515562226E-1,-1.261579579E1,2.092299968E0,1.281018576E1
6.371209042E0,1.534299155E-1,-1.093379275E1,3.624878433E0,1.152003074E1
6.381288042E0,-1.514678530E0,-1.094354824E1,4.535583440E0,1.194265533E1
6.391366042E0,-3.035089670E0,-1.029974875E1,4.175327128E0,1.152084850E1
6.401445042E0,-4.180693703E0,-8.449392679E0,2.878365580E0,9.856745147E0
6.411523042E0,-4.992804714E0,-5.917785113E0,1.240218998E0,7.841327867E0
6.421602042E0,-5.415121619E0,-2.624005267E0,-5.645743990E-1,6.043814196E0
6.431680042E0,-5.385921793E0,1.250520623E0,-2.285387161E0,5.982888087E0
6.441759042E0,-4.781328465E0,5.151482944E0,-3.746085366E0,7.964423016E0
6.451837042E0,-3.532175506E0,8.309070028E0,-6.106206375E0,1.089966352E1
6.461916042E0,-1.875513570E0,1.026141791E1,-9.236787509E0,1.393314366E1
6.471994042E0,-3.294397312E-1,1.125010840E1,-1.042605095E1,1.534196884E1
6.482073042E0,6.061844281E-1,1.177367043E1,-8.846467738E0,1.473929328E1
6.492151042E0,1.062115002E0,1.206617038E1,-6.369590696E0,1.368547557E1
6.502230042E0,1.242435531E0,1.221206426E1,-4.264602417E0,1.299480639E1
6.512308042E0,1.314744831E0,1.205397893E1,-2.671536698E0,1.241628247E1
6.522387042E0,1.473250276E0,1.174836017E1,-1.179264260E0,1.189895363E1
6.532465042E0,1.620315351E0,1.126208467E1,1.875691764E-1,1.137959381E1
6.542544042E0,1.694827005E0,1.058725400E1,1.313966275E0,1.080226334E1
6.552622042E0,1.604614408E0,9.564242696E0,1.929947055E0,9.888084818E0
6.562701042E0,1.475629947E0,8.395502400E0,1.877965454E0,8.728613781E0
6.572779042E0,1.562771879E0,7.695775459E0,1.737313020E0,8.042727920E0
6.582858042E0,1.660084019E0,7.276520741E0,1.522019563E0,7.617097649E0
6.592936042E0,1.687596046E0,7.049576853E0,1.094316277E0,7.330896421E0
6.603015042E0,1.593401495E0,7.288083610E0,4.030555185E-1,7.471114025E0
6.613093042E0,1.451349676E0,7.832716080E0,-1.739096421E-1,7.967942120E0
6.623172042E0,1.377163420E0,8.354437405E0,-3.878680336E-1,8.476063063E0
6.633250042E0,1.427393780E0,8.810811417E0,-4.488674299E-1,8.936964406E0
6.643329042E0,1.465134341E0,9.337453759E0,-5.642160378E-1,9.468526869E0
6.653408042E0,1.463684378E0,9.874956719E0,-7.998733735E-1,1.001483597E1
6.663486042E0,1.379473363E0,1.026744873E1,-1.221456453E0,1.043146232E1
6.673565042E0,1.233412547E0,1.017237067E1,-1.799991664E0,1.040376862E1
6.683643042E0,1.013534580E0,9.566305009E0,-2.469708356E0,9.931812686E0
6.693722042E0,5.890882659E-1,8.943643785E0,-2.934611117E0,9.431210502E0
6.703800042E0,2.138073872E-1,8.606954091E0,-3.166868370E0,9.173572237E0
6.713879042E0,2.520149946E-2,8.425546564E0,-3.316227307E0,9.054713334E0
6.723957042E0,-4.072848827E-2,8.109788148E0,-3.499564415E0,8.832738743E0
6.734036042E0,6.027982324E-2,7.372890456E0,-3.564637786E0,8.189614758E0
6.744114042E0,5.199762234E-1,6.241937792E0,-2.796032106E0,6.859297210E0
6.754193042E0,9.567486146E-1,5.656799905E0,-5.707280087E-1,5.765456057E0
6.764271042E0,1.180592747E0,5.206062609E0,1.316246543E0,5.498126234E0
6.774350042E0,9.958920689E-1,3.565708703E0,2.119856725E0,4.266130812E0
6.784428042E0,6.758014508E-1,9.538153589E-2,1.191109550E0,1.372788111E0
6.794507042E0,4.674498081E-2,-6.884733903E0,-1.964276204E0,7.159617798E0
6.804585042E0,-1.060916177E0,-1.901253978E1,-8.246481432E0,2.075106426E1
6.814664042E0,-2.660866407E0,-2.882834958E1,-6.308300766E0,2.963019757E1
6.824742042E0,-7.529510466E0,-3.448730827E1,9.984459865E-1,3.531380543E1
6.834821042E0,-1.863677549E1,-4.319130042E1,4.579118299E-1,4.704282640E1
6.844899042E0,-2.020708618E1,-4.115538880E1,-8.044605142E0,4.654898529E1
6.854978042E0,-4.217462457E0,-2.548745404E1,-7.458072109E0,2.688903387E1
6.865056042E0,2.455992834E0,-1.682357613E1,-1.964991026E0,1.711507535E1
6.875135042E0,5.484278392E0,-1.296296486E1,1.550396247E0,1.416049067E1
6.885214042E0,5.950075192E0,-1.196404993E1,2.958387065E0,1.368553760E1
6.895292042E0,3.484870070E0,-1.308065411E1,4.219741409E0,1.417935291E1
6.905371042E0,1.006360778E0,-1.340839639E1,4.219019862E0,1.409247971E1
6.915449042E0,-1.137570543E0,-1.230687218E1,2.934587728E0,1.270295142E1
6.925528042E0,-2.860923336E0,-1.063751433E1,1.422952673E0,1.110704226E1
6.935606042E0,-3.685981252E0,-8.516265530E0,-1.686312144E-1,9.281253840E0
6.945685042E0,-3.953144920E0,-5.964341814E0,-1.836222035E0,7.387316116E0
6.955767083E0,-3.983543717E0,-2.953688242E0,-3.748672174E0,6.216545492E0
6.965846083E0,-3.634489501E0,6.884143335E-1,-6.000233778E0,7.048846261E0
6.975924083E0,-3.200764094E0,4.112899915E0,-7.956864163E0,9.511704569E0
6.986003083E0,-2.659388815E0,6.830079394E0,-8.721699851E0,1.139255817E1
6.996081083E0,-1.824189196E0,8.894184526E0,-7.876635686E0,1.201979926E1
7.006160083E0,-9.780052900E-1,1.035213395E1,-6.223391594E0,1.211832392E1
7.016238083E0,-1.351187749E-1,1.130792333E1,-4.573613731E0,1.219857901E1
7.026317083E0,6.540277353E-1,1.210914624E1,-3.030535274E0,1.249973276E1
7.036395083E0,1.188201144E0,1.274584020E1,-1.812885359E0,1.292883667E1
7.046474083E0,1.273668872E0,1.291174208E1,-7.611894373E-1,1.299671979E1
7.056552083E0,1.187977927E0,1.287150622E1,4.138261628E-1,1.293283480E1
7.066631083E0,1.026015901E0,1.257743571E1,1.340729127E0,1.269023847E1
7.076709083E0,7.704884836E-1,1.204984612E1,1.794080129E0,1.220701305E1
7.086788083E0,4.990445070E-1,1.139826983E1,2.007080162E0,1.158438481E1
7.096866083E0,1.766711359E-1,1.013692601E1,2.302414838E0,1.039661463E1
7.106945083E0,-7.958879113E-2,8.400166724E0,2.566910130E0,8.783971937E0
7.117023083E0,-1.486407535E-1,7.328005475E0,2.356336691E0,7.698966224E0
7.127102083E0,8.209900081E-2,6.958745620E0,1.511437418E0,7.121469225E0
7.137180083E0,5.251033545E-1,7.077582092E0,1.384679139E-1,7.098385392E0
7.147259083E0,8.281303355E-1,7.637247754E0,-1.202519075E0,7.775564625E0
7.157338083E0,8.491114609E-1,8.654964409E0,-2.077852521E0,8.941301376E0
7.167416083E0,7.239442085E-1,9.663074673E0,-2.311425397E0,9.962017603E0
7.177495083E0,7.859441364E-1,1.030848449E1,-2.007580099E0,1.053152119E1
7.187573083E0,9.855859128E-1,1.070588115E1,-1.561650968E0,1.086397830E1
7.197652083E0,1.140942486E0,1.096161848E1,-1.222271554E0,1.108840733E1
7.207730083E0,1.216034622E0,1.106125036E1,-9.632808316E-1,1.116950803E1
7.217809083E0,1.256017444E0,1.076231496E1,-7.317825472E-1,1.086004185E1
7.227887083E0,1.220839571E0,9.939222296E0,-4.689677453E-1,1.002489501E1
7.237966083E0,1.094381692E0,9.137832155E0,-9.510737456E-2,9.203623917E0
7.248044083E0,1.004553111E0,8.492774926E0,4.458104324E-1,8.563591527E0
7.258123083E0,1.009964270E0,8.083811308E0,1.025192174E0,8.210910551E0
7.268201083E0,1.135691686E0,7.713743368E0,1.572951297E0,7.953980647E0
7.278280083E0,1.229469623E0,7.208394831E0,2.046239988E0,7.593395136E0
7.288358083E0,1.151887743E0,6.580663487E0,2.209667473E0,7.036661683E0
7.298437083E0,9.764908612E-1,6.066099154E0,1.736168135E0,6.384776671E0
7.308515083E0,8.055422491E-1,5.914263335E0,1.373234968E0,6.124800682E0
7.318594083E0,5.486452679E-1,4.692913887E0,1.007335070E0,4.831063684E0
7.328672083E0,2.498557641E-1,1.604878848E0,-1.175322944E0,2.004856115E0
7.338751083E0,-3.328074351E-1,-6.294544607E0,-8.210314064E0,1.035090864E1
7.348829083E0,-2.236234443E0,-2.154803750E1,-1.501870438E1,2.636057939E1
7.358908083E0,-5.975717572E0,-3.606298320E1,-9.517820481E0,3.777349421E1
7.368986083E0,-1.301356550E1,-4.711464646E1,-7.341294734E-1,4.888437117E1
7.379065083E0,-2.189248294E1,-6.066474545E1,-6.929102576E-1,6.449784705E1
7.389143083E0,-1.269813394E1,-6.037272147E1,-1.839660198E0,6.172108596E1
7.399222083E0,9.971327019E-1,-3.697234920E1,2.417381623E0,3.706470845E1
7.409301083E0,2.968584024E0,-1.894674223E1,5.704715499E0,2.000838103E1
7.419379083E0,3.277426354E0,-1.003044237E1,4.858004758E0,1.161686308E1
7.429458083E0,2.958814496E0,-4.582531319E0,3.042065399E0,6.245665569E0
7.439536083E0,1.555655817E0,-1.942857268E0,1.867464001E0,3.111620347E0
7.449615083E0,-8.085015249E-1,-1.504560508E0,7.642335708E-1,1.871210835E0
7.459693083E0,-3.087714611E0,-2.071856201E0,-7.232900512E-1,3.788102182E0
7.469772083E0,-4.720235294E0,-1.791891516E0,-2.907694044E0,5.826335134E0
7.479850083E0,-5.403785622E0,-3.103409708E-1,-6.098133709E0,8.153799440E0
7.489929083E0,-4.249258153E0,2.063233897E0,-9.796243840E0,1.087563894E1
7.500007083E0,-1.980317017E0,4.174798540E0,-1.208057324E1,1.293409634E1
7.510086083E0,-4.535341658E-1,5.306438836E0,-1.105317418E1,1.226933763E1
7.520164083E0,3.293809667E-1,6.195588668E0,-8.083745234E0,1.019022805E1
7.530243083E0,8.071414626E-1,7.276190373E0,-5.446860305E0,9.124840320E0
7.540321083E0,1.067241548E0,8.525920452E0,-3.228639525E0,9.179021586E0
7.550400083E0,1.121279030E0,9.560425633E0,-1.218495423E0,9.702769504E0
7.560478083E0,1.035972978E0,1.037780557E1,6.764080994E-1,1.045129735E1
7.570557083E0,8.955455160E-1,1.104206447E1,1.583210236E0,1.119087772E1
7.580635083E0,8.260430257E-1,1.159884804E1,1.749730460E0,1.175913175E1
7.590714083E0,6.596486637E-1,1.189476744E1,1.761890037E0,1.204262784E1
7.600792083E0,3.463908094E-1,1.203205889E1,1.557397703E0,1.213737679E1
7.610871083E0,5.678589262E-2,1.199209200E1,1.218381256E0,1.205395985E1
7.620949083E0,6.629280746E-3,1.188000205E1,9.459941232E-1,1.191760872E1
7.631028083E0,1.015543684E-1,1.177445747E1,7.312523510E-1,1.179757992E1
7.641106083E0,3.190396542E-1,1.149612766E1,6.210694657E-1,1.151731153E1
7.651185083E0,1.796727309E-1,1.061102177E1,5.730690877E-1,1.062800421E1
7.661264083E0,-1.918550393E-1,9.783972874E0,4.678281230E-1,9.797029994E0
7.671342083E0,-3.845306622E-1,9.484753307E0,3.345330946E-1,9.498437846E0
7.681421083E0,-3.942207411E-1,9.652577752E0,7.210903287E-2,9.660893694E0
7.691499083E0,-2.586444946E-1,1.000832352E1,-3.383948882E-1,1.001738228E1
7.701578083E0,-2.282201891E-1,1.024099593E1,-1.047356995E0,1.029694317E1
7.711656083E0,-3.063060265E-1,1.018673844E1,-2.157214440E0,1.041715113E1
7.721735083E0,-3.542203774E-1,9.791454971E0,-3.437517271E0,1.038338035E1
7.731813083E0,-3.169065168E-1,9.112487984E0,-4.485347672E0,1.016150632E1
7.741892083E0,-3.039874593E-1,8.388798568E0,-4.949924158E0,9.745055103E0
7.751970083E0,-4.041481438E-1,7.849740833E0,-4.764025970E0,9.191175676E0
7.762049083E0,-5.193328835E-1,7.474926708E0,-4.190945041E0,8.585351261E0
7.772127083E0,-5.796890129E-1,7.151825359E0,-3.548139575E0,8.004619901E0
7.782206083E0,-5.169482428E-1,6.817867484E0,-2.859035854E0,7.411115876E0
7.792284083E0,-2.553150170E-1,6.422314455E0,-2.246082762E0,6.808538499E0
7.802363083E0,2.091155814E-1,5.819896291E0,-1.979897772E0,6.151009458E0
7.812441083E0,1.188123084E0,4.906177629E0,-2.552625382E0,5.656687346E0
7.822520083E0,2.590025927E0,4.181513482E0,-5.216333828E0,7.169618394E0
7.832598083E0,3.029888572E0,4.189200817E0,-7.737786534E0,9.306071603E0
7.842677083E0,2.161583480E0,2.565805006E0,-7.632127347E0,8.336975849E0
7.852755083E0,6.399888629E-1,-5.260845172E-1,-4.051091337E0,4.134935512E0
7.862834083E0,-7.054177442E-1,-5.824686331E0,1.168040091E0,5.982382694E0
7.872912083E0,-2.814330382E0,-1.390085474E1,3.724831907E0,1.466385320E1
7.882991083E0,-5.365377601E0,-2.729238894E1,2.560622034E0,2.793239259E1
7.893070083E0,-8.510265702E0,-4.091021739E1,7.325441471E-1,4.179242910E1
7.903148083E0,-1.168704978E1,-4.524403330E1,-2.537899169E-1,4.672979875E1
7.913227083E0,-4.673133341E0,-3.784307211E1,1.995680430E0,3.818270581E1
7.923305083E0,2.129993751E0,-2.791908181E1,2.942370664E0,2.815438772E1
7.933384083E0,5.346112195E0,-1.909668589E1,9.602357478E-1,1.985412754E1
7.943462083E0,4.463297529E0,-1.425543224E1,-1.146181299E0,1.498172569E1
7.953537667E0,-2.479117110E-1,-1.252364951E1,5.252012953E-1,1.253710867E1
7.963615667E0,-4.891754887E0,-1.175153521E1,2.278338781E0,1.293130594E1
7.973694667E0,-7.112650183E0,-1.049335474E1,1.941161137E0,1.282452310E1
7.983772667E0,-8.433633263E0,-8.842883395E0,4.795700629E-1,1.222917594E1
7.993851667E0,-8.666551836E0,-6.952014306E0,-1.062343336E0,1.116101236E1
8.003929667E0,-7.685307189E0,-4.629873301E0,-2.158017848E0,9.228039575E0
8.014008667E0,-5.855710487E0,-2.032289847E0,-3.258859105E0,7.002835854E0
8.024086667E0,-3.835908246E0,5.929468435E-1,-4.668828621E0,6.071551591E0
8.034165667E0,-1.579089119E0,2.767136920E0,-5.618319379E0,6.458798791E0
8.044243667E0,3.831877761E-1,4.011724373E0,-5.842393454E0,7.097487343E0
8.054322667E0,1.559069568E0,4.840304067E0,-5.496407272E0,7.487972641E0
8.064400667E0,1.984067275E0,5.535539178E0,-4.857162759E0,7.626974958E0
8.074479667E0,2.000909449E0,6.343595729E0,-4.204945614E0,7.869333709E0
8.084557667E0,2.005664404E0,7.398427001E0,-3.589205739E0,8.464148489E0
8.094636667E0,2.008446510E0,8.582964134E0,-3.095824699E0,9.342658149E0
8.104714667E0,2.051195211E0,9.707196593E0,-2.663390357E0,1.027281440E1
8.114793667E0,2.137714707E0,1.079778417E1,-2.081583045E0,1.120245309E1
8.124872667E0,2.101404229E0,1.160129452E1,-1.365890865E0,1.186893390E1
8.134950667E0,1.921873366E0,1.170190639E1,-5.840182183E-1,1.187304879E1
8.145029667E0,1.708490925E0,1.157301270E1,7.030692101E-2,1.169865408E1
8.155107667E0,1.509113735E0,1.141756097E1,4.823648127E-1,1.152695964E1
8.165186667E0,1.335887925E0,1.123601895E1,7.635188218E-1,1.134088530E1
8.175264667E0,1.243553373E0,1.095999763E1,9.361379103E-1,1.106997413E1
8.185343667E0,1.291264021E0,1.046291179E1,9.545480150E-1,1.058541676E1
8.195421667E0,1.225092251E0,9.753545133E0,9.015751648E-1,9.871440192E0
8.205500667E0,1.021915833E0,9.129196402E0,8.334475011E-1,9.223945667E0
8.215578667E0,8.973081592E-1,8.725806350E0,5.831767309E-1,8.791186125E0
8.225657667E0,8.379709802E-1,8.438251394E0,8.989151202E-2,8.480233631E0
8.235735667E0,8.162036236E-1,8.330220577E0,-3.819121329E-1,8.378819731E0
8.245814667E0,8.657463509E-1,8.388383415E0,-6.195452428E-1,8.455668476E0
8.255892667E0,9.329350980E-1,8.533413659E0,-5.064542814E-1,8.599186736E0
8.265971667E0,9.051804118E-1,8.680636024E0,-2.150606100E-1,8.730351908E0
8.276049667E0,8.069220458E-1,9.023531953E0,-3.203689684E-2,9.059595932E0
8.286128667E0,7.379965295E-1,9.404681536E0,9.859810749E-2,9.434108080E0
8.296206667E0,7.781975258E-1,9.644741898E0,1.593436797E-1,9.677397795E0
8.306285667E0,9.071990168E-1,9.691288658E0,-2.660717010E-2,9.733693742E0
8.316363667E0,1.061857725E0,9.487833620E0,-6.934012775E-1,9.572216774E0
8.326442667E0,1.092166182E0,8.900333458E0,-2.284080162E0,9.253420169E0
8.336521667E0,9.345578465E-1,7.512995591E0,-5.419358511E0,9.310636272E0
8.346599667E0,3.612962392E-1,5.959676905E0,-7.675613090E0,9.724367336E0
8.356678667E0,-3.298667242E-1,6.171225659E0,-4.600211838E0,7.704205809E0
8.366756667E0,1.550035474E-1,6.140534209E0,-7.408071399E-1,6.187001026E0
8.376835667E0,1.431345767E-1,4.128717803E0,2.562226510E-1,4.139136172E0
8.386913667E0,-9.725716187E-1,-9.209768111E-1,-3.676065543E-1,1.388966673E0
8.396992667E0,-3.003994762E0,-1.299650332E1,-5.531019280E0,1.444040364E1
8.407070667E0,-4.964472615E0,-3.085777780E1,-1.046840116E1,3.296112652E1
8.417149667E0,-7.694251674E0,-3.813638015E1,7.104060039E-1,3.891130525E1
8.427227667E0,-1.437305834E1,-4.357709035E1,8.863935710E0,4.673453718E1
8.437306667E0,-1.532912137E1,-4.492541150E1,3.543060683E0,4.760071259E1
8.447384667E0,-2.678284385E0,-2.944854503E1,-5.804970689E0,3.013449346E1
8.457463667E0,2.281280077E0,-1.673727357E1,-4.368639586E0,1.744779577E1
8.467541667E0,2.952495703E0,-1.074133515E1,-5.426831545E-1,1.115293758E1
8.477620667E0,3.434618806E0,-7.327942325E0,1.088000187E-1,8.093650753E0
8.487698667E0,3.098184051E0,-6.395900828E0,-5.033515660E-1,7.124581013E0
8.497777667E0,-2.262808138E-1,-8.901471326E0,3.217629218E-1,8.910158593E0
8.507855667E0,-4.116615528E0,-1.180747436E1,1.664512846E0,1.261481578E1
8.517934667E0,-5.387128658E0,-1.209826575E1,1.261618638E0,1.330341576E1
8.528012667E0,-5.044127480E0,-1.010317705E1,-2.874363307E-1,1.129601825E1
8.538091667E0,-3.538588148E0,-7.007704942E0,-2.019298503E0,8.105991677E0
8.548169667E0,-2.237365441E0,-3.922751386E0,-3.570534410E0,5.756952191E0
8.558248667E0,-1.309884187E0,-9.379091781E-1,-4.817609269E0,5.079845399E0
8.568327667E0,-5.340219663E-1,1.668663785E0,-5.700690275E0,5.963848414E0
8.578405667E0,8.689503327E-2,3.653908104E0,-5.860383582E0,6.906713467E0
8.588484667E0,5.705094691E-1,5.090695290E0,-5.421682194E0,7.458907253E0
8.598562667E0,9.093716960E-1,6.291561357E0,-4.747498230E0,7.934068353E0
8.608641667E0,1.081015542E0,7.539763559E0,-4.151481013E0,8.674757849E0
8.618719667E0,1.165676500E0,9.025805351E0,-3.763229402E0,9.848139899E0
8.628798667E0,1.179561299E0,1.061892486E1,-3.335459969E0,1.119277550E1
8.638876667E0,1.223372585E0,1.194882495E1,-2.533800856E0,1.227563460E1
8.648955667E0,1.165194251E0,1.257663114E1,-1.377301122E0,1.270536449E1
8.659033667E0,9.704625280E-1,1.254227641E1,-1.851191930E-1,1.258112730E1
8.669112667E0,7.070461938E-1,1.224801411E1,8.497834522E-1,1.229780045E1
8.679190667E0,4.024019460E-1,1.190373824E1,1.195936718E0,1.197042923E1
8.689269667E0,1.115977652E-1,1.166414156E1,1.068990451E0,1.171355595E1
8.699347667E0,-2.087613863E-1,1.143216380E1,8.790727401E-1,1.146781232E1
8.709426667E0,-6.792431219E-1,1.050990937E1,7.477658381E-1,1.055834836E1
8.719504667E0,-9.799389642E-1,9.252422964E0,4.837220246E-1,9.316737523E0
8.729583667E0,-1.021664403E0,8.457118020E0,-1.792048806E-1,8.520490464E0
8.739661667E0,-8.296083654E-1,8.146690511E0,-1.172783133E0,8.272377928E0
8.749740667E0,-3.995455080E-1,8.116207806E0,-2.100185961E0,8.393047529E0
8.759818667E0,2.180390172E-1,8.299910949E0,-2.436947576E0,8.653021222E0
8.769897667E0,7.233708890E-1,8.528830027E0,-2.051126068E0,8.801779662E0
8.779975667E0,1.107770793E0,8.685417293E0,-1.075774390E0,8.821616644E0
8.790054667E0,1.563385106E0,8.974718812E0,-1.447116073E-1,9.111020371E0
8.800133667E0,1.960615993E0,9.246968096E0,4.206942658E-1,9.461892925E0
8.810211667E0,2.158909402E0,9.421554846E0,6.612814987E-1,9.688337254E0
8.820290667E0,2.183148742E0,9.475008337E0,7.540206778E-1,9.752459618E0
8.830368667E0,2.106219703E0,9.424098970E0,8.601955891E-1,9.694830544E0
8.840447667E0,2.007380416E0,9.228186255E0,1.021650077E0,9.499092934E0
8.850525667E0,1.930084318E0,8.745857622E0,1.236753938E0,9.041283721E0
8.860604667E0,2.005623620E0,7.849481217E0,1.084356787E0,8.173904276E0
8.870682667E0,2.491479586E0,6.350861480E0,-4.435803044E-1,6.836495853E0
8.880761667E0,2.794581996E0,4.601925949E0,-5.505841169E0,7.700759570E0
8.890839667E0,1.722717054E0,3.659937753E0,-1.104934192E1,1.176651415E1
8.900918667E0,2.438557899E-1,1.582189313E0,-1.152365752E1,1.163432299E1
8.910996667E0,-2.654793781E-1,-1.659660242E0,-5.812901852E0,6.051014738E0
8.921075667E0,-4.810279199E-1,-8.104235047E0,-7.132106209E-1,8.149765822E0
8.931153667E0,-3.127787042E0,-1.885056723E1,1.994907136E0,1.921214697E1
8.941232667E0,-1.073484825E1,-3.646092131E1,1.973885811E0,3.805958454E1
8.951310667E0,-2.309175857E1,-5.320287031E1,4.123306789E0,5.814444412E1
8.961392083E0,-2.233461664E1,-5.596197959E1,3.860644015E0,6.037783395E1
8.971470083E0,-4.059719489E0,-4.055446343E1,3.400859030E-1,4.075857560E1
8.981549083E0,3.011715426E0,-2.531551783E1,-3.524290828E-1,2.549647189E1
8.991627083E0,4.196078312E0,-1.685466695E1,1.045756978E0,1.740058846E1
9.001706083E0,4.043278872E0,-1.198309431E1,1.081527904E0,1.269300421E1
9.011785083E0,3.418433129E0,-8.918896029E0,9.398195366E-1,9.597689940E0
9.021863083E0,1.813206663E0,-7.261956496E0,1.011266592E0,7.552906108E0
9.031942083E0,-7.177962998E-1,-6.702291420E0,8.623473644E-1,6.795556252E0
9.042020083E0,-2.398265759E0,-5.797142437E0,-1.305098625E-1,6.274995769E0
9.052099083E0,-3.167685518E0,-3.759203010E0,-1.778327730E0,5.227646538E0
9.062177083E0,-3.441943029E0,-6.373570311E-1,-4.083707691E0,5.378648929E0
9.072256083E0,-3.615708829E0,3.062770389E0,-6.507625916E0,8.050037755E0
9.082334083E0,-3.528241500E0,6.466335218E0,-7.899812880E0,1.080134356E1
9.092413083E0,-3.006745293E0,8.940845307E0,-7.687190577E0,1.216848927E1
9.102491083E0,-2.316668157E0,1.062923000E1,-6.728544833E0,1.279143453E1
9.112570083E0,-1.615024206E0,1.176658361E1,-5.768862963E0,1.320380903E1
9.122648083E0,-8.968250330E-1,1.228726413E1,-4.611962695E0,1.315489851E1
9.132727083E0,-2.768567441E-1,1.242856911E1,-3.350760963E0,1.287530888E1
9.142805083E0,8.245231882E-2,1.260069243E1,-2.177317314E0,1.278768778E1
9.152884083E0,2.903239051E-1,1.258947864E1,-1.168988217E0,1.264696777E1
9.162962083E0,4.187445483E-1,1.241473928E1,-2.863820046E-1,1.242510012E1
9.173041083E0,7.223971814E-1,1.215469489E1,3.711549371E-1,1.218179878E1
9.183119083E0,1.414896526E0,1.161057755E1,6.870640652E-1,1.171663349E1
9.193198083E0,2.163648131E0,1.073012955E1,1.001364332E0,1.099180531E1
9.203276083E0,2.391332862E0,9.701486202E0,1.561087296E0,1.011307574E1
9.213355083E0,2.309375510E0,8.925139101E0,1.995379883E0,9.432542822E0
9.223433083E0,2.428443093E0,8.632727448E0,2.052407777E0,9.199657424E0
9.233512083E0,2.571951307E0,8.573409199E0,2.018733078E0,9.175704990E0
9.243591083E0,2.665750001E0,8.578676956E0,1.932654462E0,9.188856003E0
9.253669083E0,2.722291407E0,8.674361962E0,1.578386868E0,9.227498635E0
9.263748083E0,2.700811953E0,8.822612268E0,1.067067740E0,9.288245582E0
9.273826083E0,2.637155363E0,8.845266135E0,3.018150725E-1,9.234956077E0
9.283905083E0,2.418238240E0,8.935182863E0,-1.325099519E0,9.351003033E0
9.293983083E0,1.309162056E0,9.050706303E0,-3.947778053E0,9.960629570E0
9.304062083E0,-1.068433942E-1,8.721610973E0,-5.858492593E0,1.050713324E1
9.314140083E0,-8.747113019E-1,8.226648261E0,-6.230188397E0,1.035654908E1
9.324219083E0,-1.214746480E0,7.775005231E0,-5.487791984E0,9.593861382E0
9.334297083E0,-1.299072101E0,7.565559136E0,-4.281428365E0,8.789533674E0
9.344376083E0,-1.292474249E0,7.492651958E0,-2.976908705E0,8.165311291E0
9.354454083E0,-1.203298801E0,7.453430589E0,-1.729545579E0,7.745507309E0
9.364533083E0,-9.848874629E-1,7.434489119E0,-5.836105943E-2,7.499669179E0
9.374611083E0,-6.482502477E-1,7.602219424E0,1.897654345E0,7.862255437E0
9.384690083E0,-4.905271603E-1,7.576171247E0,2.974038892E0,8.153765694E0
9.394768083E0,-3.388597418E-1,7.206034895E0,3.374269109E0,7.964135663E0
9.404847083E0,-1.105954063E-1,6.325651209E0,3.570532072E0,7.264626201E0
9.414925083E0,2.341005877E-2,4.745053509E0,3.563837887E0,5.934393087E0
9.425004083E0,-2.970487878E-2,1.377303461E0,2.744278692E0,3.070653472E0
9.435082083E0,-4.308471152E-1,-4.080485290E0,2.260112572E-1,4.109388097E0
9.445161083E0,-1.101785875E0,-1.507284726E1,-7.827631341E0,1.701988452E1
9.455240083E0,-3.599581624E0,-2.818534764E1,-8.145307059E0,2.955870154E1
9.465318083E0,-8.976154304E0,-3.975000818E1,-6.086617033E0,4.120292955E1
9.475397083E0,-1.798383446E1,-5.084284520E1,-7.399022248E0,5.443490369E1
9.485475083E0,-1.675339083E1,-4.933293039E1,-6.009188204E0,5.244544278E1
9.495554083E0,-3.831677493E0,-3.101330905E1,6.416924492E-1,3.125570124E1
9.505632083E0,9.191323069E-1,-1.743032299E1,3.527686014E0,1.780745721E1
9.515711083E0,2.581884264E0,-1.110585526E1,3.116037062E0,1.182014527E1
9.525789083E0,2.853906677E0,-8.256452104E0,2.507943006E0,9.088650218E0
9.535868083E0,1.447166432E0,-8.088239989E0,2.740475956E0,8.661646798E0
9.545946083E0,-1.781416814E0,-1.027608858E1,3.265073526E0,1.092850161E1
9.556025083E0,-4.182028622E0,-1.162499679E1,2.798850464E0,1.266741795E1
9.566103083E0,-4.711377932E0,-1.050310906E1,1.298311232E0,1.158438579E1
9.576182083E0,-3.773245975E0,-7.598381896E0,-5.472748268E-1,8.501311802E0
9.586260083E0,-2.490692258E0,-4.286623616E0,-2.176779224E0,5.414522854E0
9.596339083E0,-1.534305002E0,-6.069199347E-1,-4.076725531E0,4.397969383E0
9.606417083E0,-7.444210115E-1,2.894419110E0,-6.570340227E0,7.218115774E0
9.616496083E0,-6.901147038E-2,5.269751651E0,-7.618746579E0,9.263927055E0
9.626574083E0,1.151451248E-1,6.864304901E0,-6.570264214E0,9.502647632E0
9.636653083E0,-1.656340778E-2,7.950908774E0,-4.960390674E0,9.371376650E0
9.646731083E0,-1.612916431E-1,8.982049466E0,-3.959620419E0,9.817424381E0
9.656810083E0,-3.281384334E-1,1.027252996E1,-3.562441279E0,1.087766218E1
9.666889083E0,-4.491855915E-1,1.155664284E1,-3.315033891E0,1.203109351E1
9.676967083E0,-4.852518024E-1,1.263249076E1,-2.831088502E0,1.295493551E1
9.687046083E0,-5.235899489E-1,1.322755254E1,-2.072581987E0,1.339917492E1
9.697124083E0,-6.552889797E-1,1.326966185E1,-1.131745546E0,1.333394830E1
9.707203083E0,-8.805099857E-1,1.300667514E1,-2.464104384E-1,1.303877349E1
9.717281083E0,-1.051135685E0,1.243736917E1,2.326035543E-1,1.248387530E1
9.727360083E0,-8.675288746E-1,1.079475298E1,2.127760845E-1,1.083164677E1
9.737438083E0,-7.868667539E-1,9.095595962E0,1.740879091E-1,9.131228384E0
9.747517083E0,-8.035720298E-1,8.250925316E0,4.206422621E-1,8.300628680E0
9.757595083E0,-6.574523033E-1,8.083805460E0,8.797006579E-1,8.158065181E0
9.767674083E0,-4.793588322E-1,8.308234461E0,1.145394702E0,8.400504376E0
9.777752083E0,-3.212097752E-1,8.685238368E0,1.243748378E0,8.779718176E0
9.787831083E0,-4.111747429E-2,9.256321303E0,1.273397854E0,9.343592286E0
9.797909083E0,3.857931492E-1,9.758112978E0,1.291031302E0,9.850703887E0
9.807988083E0,8.722392453E-1,9.944401760E0,1.261615130E0,1.006198790E1
9.818066083E0,1.445865719E0,9.854394400E0,9.899699358E-1,1.000897883E1
9.828145083E0,1.963996707E0,9.539071602E0,6.179471987E-1,9.758741150E0
9.838223083E0,2.327925801E0,9.217394049E0,3.063174651E-1,9.511751783E0
9.848302083E0,2.496381599E0,8.974698347E0,2.421162432E-1,9.318570265E0
9.858381083E0,2.617402006E0,8.843902565E0,3.109104896E-1,9.228329815E0
9.868459083E0,2.800902836E0,8.876303741E0,3.020811939E-1,9.312630018E0
9.878538083E0,2.961244599E0,9.045508128E0,2.790911114E-1,9.521978719E0
9.888616083E0,3.019979003E0,9.212680609E0,4.997872861E-1,9.707911439E0
9.898695083E0,3.021004897E0,9.208472952E0,9.739917612E-1,9.740179909E0
9.908773083E0,2.733671551E0,8.716513370E0,1.446581272E0,9.248954690E0
9.918852083E0,2.190488752E0,7.897341846E0,1.775743260E0,8.385673100E0
9.928930083E0,1.876296951E0,7.041096051E0,1.468529381E0,7.433310325E0
9.939009083E0,1.822046338E0,5.385921793E0,8.556800768E-2,5.686416121E0
9.949087083E0,2.191285289E0,2.460256916E0,-2.892041048E0,4.383890593E0
9.959163792E0,2.753989456E0,-3.951797429E0,-4.836281183E0,6.825743661E0
9.969241792E0,3.239575865E0,-1.803406438E1,-7.443746431E0,1.977704959E1
9.979320792E0,2.419523019E0,-4.165770673E1,-1.147705522E1,4.327749320E1
9.989398792E0,-2.835447602E0,-6.060239074E1,-3.782600058E0,6.078649184E1
9.999477792E0,-1.046928175E1,-6.695827673E1,6.180487064E0,6.805303156E1
1.000955579E1,-1.210283476E1,-5.810487186E1,5.556158799E0,5.961145564E1
1.001963479E1,-1.758264763E0,-3.108266171E1,1.701027539E0,3.117878844E1
1.002971279E1,7.423062198E-1,-1.783929011E1,2.402955372E0,1.801570106E1
1.003979179E1,6.975432989E-1,-1.173140442E1,3.297173570E0,1.220589078E1
1.004986979E1,2.897017613E-1,-7.839743848E0,2.935330324E0,8.376256612E0
1.005994879E1,-8.535921822E-1,-5.428131089E0,2.178583090E0,5.910960244E0
1.007002779E1,-2.154143190E0,-3.651531211E0,1.542108403E0,4.511331444E0
1.008010579E1,-3.288659147E0,-1.910807510E0,7.922089163E-1,3.885107372E0
1.009018479E1,-4.010487102E0,1.807929844E-1,-1.319985545E-1,4.016729580E0
1.010026279E1,-4.701041809E0,2.814837336E0,-1.363709269E0,5.646486190E0
1.011034179E1,-5.745373528E0,5.813612874E0,-2.545871263E0,8.560892016E0
1.012041979E1,-6.852153803E0,8.985578261E0,-3.420732254E0,1.180652521E1
1.013049879E1,-6.746039118E0,1.226195738E1,-4.353663113E0,1.465670580E1
1.014057679E1,-5.325419483E0,1.488251337E1,-6.126647072E0,1.695243644E1
1.015065579E1,-3.361101764E0,1.626284686E1,-7.156418931E0,1.808290698E1
1.016073379E1,-1.545973121E0,1.595283216E1,-6.189025753E0,1.718100482E1
1.017081279E1,-2.918095364E-1,1.478582265E1,-4.843007235E0,1.556150453E1
1.018089079E1,5.851106974E-1,1.350438312E1,-3.446766397E0,1.394958481E1
1.019096979E1,1.330938988E0,1.236522622E1,-2.051731254E0,1.260475384E1
1.020104779E1,1.911239327E0,1.141385383E1,-8.205386031E-1,1.160181790E1
1.021112679E1,2.259427863E0,1.059408121E1,3.023117204E-1,1.083655681E1
1.022120479E1,2.357886057E0,9.918702078E0,1.372785317E0,1.028711899E1
1.023128379E1,2.468092185E0,9.479945726E0,2.098579585E0,1.001822770E1
1.024136179E1,2.551576099E0,9.132049259E0,2.503802885E0,9.806828904E0
1.025144079E1,2.604184668E0,8.883730289E0,2.586857321E0,9.612193945E0
1.026151879E1,2.666056103E0,8.653992017E0,2.485983496E0,9.390396526E0
1.027159779E1,2.683262120E0,8.398587391E0,2.251419516E0,9.099728326E0
1.028167679E1,2.648151929E0,8.153438782E0,1.887585439E0,8.778055104E0
1.029175479E1,2.588851222E0,7.957913738E0,1.418291858E0,8.487761395E0
1.030183379E1,2.676394273E0,7.637815518E0,5.826750398E-1,8.114112545E0
1.031191179E1,2.737940603E0,7.559245312E0,-1.197788532E0,8.128542662E0
1.032199079E1,2.220188368E0,7.938337845E0,-3.749746308E0,9.055773931E0
1.033206879E1,1.226850509E0,8.393740634E0,-5.050211508E0,9.872420184E0
1.034214779E1,7.206438938E-1,8.611221389E0,-4.795514395E0,9.882784008E0
1.035222579E1,6.296064006E-1,8.668457444E0,-4.020133839E0,9.576013511E0
1.036230479E1,5.880495080E-1,8.756997153E0,-3.129084247E0,9.317830733E0
1.037238279E1,4.939669311E-1,8.801323140E0,-2.451777284E0,9.149781648E0
1.038246179E1,4.356996464E-1,8.509544740E0,-2.311842889E0,8.828748689E0
1.039253979E1,6.247080418E-1,7.576852448E0,-3.214384013E0,8.254163661E0
1.040261879E1,6.941905054E-1,6.302873966E0,-5.018665195E0,8.086724987E0
1.041269679E1,5.037575090E-1,6.008784746E0,-5.010800689E0,7.840114113E0
1.042277579E1,9.237138927E-1,5.261916382E0,-3.837367419E0,6.577719976E0
1.043285379E1,1.339372134E0,2.894379934E0,-1.607301350E0,3.571382162E0
1.044293279E1,1.360276807E0,-2.258528561E0,1.750888939E0,3.164951237E0
1.045301079E1,3.498624475E-1,-1.255434389E1,3.650053035E0,1.307887003E1
1.046308979E1,-1.655667032E0,-3.007101154E1,2.829127346E0,3.024914759E1
1.047316879E1,-6.514929673E0,-4.923735882E1,8.309622005E0,5.035684293E1
1.048324679E1,-1.437237889E1,-6.342731160E1,1.883501832E1,6.770780640E1
1.049332579E1,-1.225150840E1,-6.418072300E1,1.635837516E1,6.735622541E1
1.050340379E1,-7.970656867E-1,-4.546482416E1,5.440392700E0,4.579610707E1
1.051348279E1,1.741778831E0,-2.366381038E1,-1.410768830E0,2.376972831E1
1.052356079E1,1.360166003E0,-1.052871519E1,-3.649227408E0,1.122589666E1
1.053363979E1,1.711722681E-1,-4.912362229E0,-2.231739542E0,5.398264907E0
1.054371779E1,-1.667077435E0,-3.888876126E0,-1.650864860E0,4.541790340E0
1.055379679E1,-2.685387583E0,-2.392292390E0,-2.616103925E0,4.447287836E0
1.056387479E1,-3.534330790E0,8.874553084E-2,-4.291034755E0,5.559887514E0
1.057395379E1,-4.962914917E0,2.946615450E0,-5.886933450E0,8.244334571E0
1.058403179E1,-6.343958842E0,5.703875839E0,-6.107927796E0,1.049222547E1
1.059411079E1,-6.609924123E0,8.477932938E0,-5.163315954E0,1.192586582E1
1.060418879E1,-6.562346499E0,1.181201296E1,-4.403439290E0,1.421190766E1
1.061426779E1,-6.371434908E0,1.608918689E1,-3.162154929E0,1.759137122E1
1.062434579E1,-4.886343289E0,1.710593584E1,-2.634318001E0,1.798413253E1
1.063442479E1,-3.248745469E0,1.649443870E1,-3.032020467E0,1.708256431E1
1.064450279E1,-1.754568738E0,1.559634614E1,-3.295110673E0,1.603690365E1
1.065458179E1,-4.160763541E-1,1.460684522E1,-3.455512662E0,1.501577885E1
1.066465979E1,6.188315901E-1,1.368775648E1,-3.928277004E0,1.425373601E1
1.067473879E1,1.490197846E0,1.275816145E1,-4.297007686E0,1.354458004E1
1.068481779E1,2.262882690E0,1.163054930E1,-4.286968017E0,1.260033372E1
1.069489579E1,2.662105139E0,1.041085520E1,-3.631979876E0,1.134301493E1
1.070497479E1,2.513666553E0,9.313966663E0,-2.496212615E0,9.964917057E0
1.071505279E1,2.205666077E0,8.807484351E0,-1.222693212E0,9.161425770E0
1.072513179E1,1.996146745E0,8.774682641E0,1.143243950E-2,8.998877040E0
1.073520979E1,1.787759873E0,8.699555275E0,1.060338179E0,8.944420854E0
1.074528879E1,1.617218666E0,8.636530477E0,1.867042270E0,8.982811460E0
1.075536679E1,1.543668441E0,8.647007518E0,2.334964533E0,9.088768379E0
1.076544579E1,1.547697465E0,8.613543903E0,2.576365077E0,9.122837443E0
1.077552379E1,1.622241424E0,8.604049194E0,2.713260090E0,9.166412062E0
1.078560279E1,1.704155361E0,8.640627621E0,2.771377906E0,9.232828747E0
1.079568079E1,1.867971393E0,8.632254408E0,2.658419055E0,9.223466006E0
1.080575979E1,2.026005844E0,8.607870349E0,2.382460881E0,9.158397867E0
1.081583779E1,2.022220357E0,8.643600345E0,1.842065889E0,9.066113216E0
1.082591679E1,2.073448983E0,8.898737168E0,9.037795651E-1,9.181695452E0
1.083599479E1,2.229724738E0,8.960995982E0,-8.743933596E-2,9.234650347E0
1.084607379E1,2.172072069E0,8.489513349E0,-9.389552450E-1,8.813136271E0
1.085615179E1,1.705926921E0,7.423168325E0,-2.447667861E0,8.000293282E0
1.086623079E1,9.109991223E-1,6.712193094E0,-4.826759577E0,8.317515467E0
1.087630879E1,8.634339233E-1,6.331896620E0,-3.951964660E0,7.513751235E0
1.088638779E1,1.235639605E0,4.929402185E0,-1.485931864E0,5.294695897E0
1.089646679E1,1.436324963E0,6.048552829E-1,-8.080968976E-2,1.560579866E0
1.090654479E1,1.057401854E0,-8.711811624E0,1.286235416E0,8.869507427E0
1.091662379E1,-3.513577268E-2,-2.193829938E1,2.853785055E0,2.212316215E1
1.092670179E1,-4.748415658E0,-3.976372809E1,6.005440139E0,4.049403455E1
1.093678079E1,-1.806411556E1,-6.067948979E1,9.810609280E0,6.406684639E1
1.094685879E1,-2.550780936E1,-6.942879084E1,1.017487795E1,7.466279848E1
1.095693683E1,-1.321353091E1,-5.686137023E1,7.260861897E0,5.882629463E1
1.096701483E1,-2.820630172E0,-2.999105204E1,-9.576908934E-1,3.013861856E1
1.097709383E1,-3.962583496E-1,-1.078046004E1,-7.807450846E0,1.331659221E1
1.098717183E1,-6.218209791E-1,-3.259063173E0,-5.294973031E0,6.248591321E0
1.099725083E1,-2.125784779E0,-3.506917289E0,-3.828355690E0,5.610145906E0
1.100732883E1,-3.604504395E0,-2.664028289E0,-5.130056992E0,6.812267126E0
1.101740783E1,-4.253454700E0,-4.143822330E-1,-5.619276568E0,7.059735028E0
1.102748583E1,-4.809951755E0,2.425846052E0,-5.298577840E0,7.556142672E0
1.103756483E1,-5.042955698E0,5.952674865E0,-4.634984937E0,9.074625368E0
1.104764283E1,-4.637374109E0,1.078187507E1,-4.869207439E0,1.270681902E1
1.105772183E1,-2.714999345E0,1.379872727E1,-3.775029083E0,1.456114489E1
1.106779983E1,-3.454635872E-1,1.339935543E1,-2.307651020E0,1.360100453E1
1.107787883E1,1.169830216E0,1.205793165E1,-1.565844591E0,1.221532184E1
1.108795783E1,1.961609874E0,1.121877668E1,-7.692667079E-1,1.141493035E1
1.109803583E1,2.485533845E0,1.076738567E1,-4.969197750E-2,1.105065346E1
1.110811483E1,2.851663100E0,1.083698858E1,3.153789318E-1,1.121034201E1
1.111819283E1,3.165530527E0,1.119679115E1,4.504578360E-1,1.164438182E1
1.112827183E1,3.502998193E0,1.136909106E1,2.738800728E-1,1.189967386E1
1.113834983E1,3.708888304E0,1.139407153E1,-2.893322904E-2,1.198255213E1
1.114842883E1,3.825839633E0,1.119387456E1,-3.188422376E-1,1.183391469E1
1.115850683E1,3.876262513E0,1.068679233E1,-3.392250466E-1,1.137312688E1
1.116858583E1,3.904955969E0,1.009521432E1,-1.814198059E-1,1.082566147E1
1.117866383E1,3.837642238E0,9.647607034E0,-1.442677671E-1,1.038386405E1
1.118874283E1,3.778252653E0,9.326375624E0,-1.279844409E-1,1.006344153E1
1.119882083E1,3.656628229E0,9.179598817E0,-6.528880399E-2,9.881306951E0
1.120889983E1,3.439931879E0,9.207677146E0,-1.254695535E-2,9.829272973E0
1.121897783E1,2.918204122E0,9.363500181E0,3.192053497E-2,9.807755597E0
1.122905683E1,1.789915888E0,9.568076715E0,8.038809638E-2,9.734390230E0
1.123913483E1,6.871057997E-1,9.861133901E0,-2.216099300E-3,9.885043303E0
1.124921383E1,-8.662159371E-2,9.966857407E0,-3.798304510E-1,9.974468459E0
1.125929183E1,-6.404814177E-1,9.970984372E0,-9.418086863E-1,1.003582330E1
1.126937083E1,-1.030617148E0,9.905138876E0,-1.374717822E0,1.005304914E1
1.127944883E1,-1.202136594E0,9.648920318E0,-1.539674792E0,9.844663233E0
1.128952783E1,-1.228546348E0,8.914629900E0,-1.473928699E0,9.118794778E0
1.129960683E1,-1.047434325E0,7.725405055E0,-1.418341559E0,7.924057969E0
1.130968483E1,-8.480110149E-1,6.443752686E0,-2.072545588E0,6.821767849E0
1.131976383E1,-7.429520448E-1,5.401837329E0,-3.408379426E0,6.430309058E0
1.132984183E1,-2.209749772E-1,4.933223925E0,-3.160519463E0,5.862969513E0
1.133992083E1,8.430948222E-1,4.526832497E0,-8.147615540E-1,4.676201207E0
1.134999883E1,2.484564376E0,2.368231682E0,2.892078470E0,4.488396074E0
1.136007783E1,4.380945051E0,-8.889517279E0,4.747262002E0,1.098875305E1
1.137015583E1,5.486286326E0,-2.809414511E1,5.018302667E0,2.906137796E1
1.138023483E1,3.601253635E0,-4.658037935E1,7.448330648E0,4.730939017E1
1.139031283E1,-5.852154211E0,-6.314946595E1,9.938407195E0,6.419403941E1
1.140039183E1,-2.076256465E1,-6.903737822E1,7.650499299E0,7.249671594E1
1.141046983E1,-1.923056608E1,-5.292254544E1,5.299269565E0,5.655698671E1
1.142054883E1,-4.862796552E0,-2.595940386E1,-2.554071106E-2,2.641094643E1
1.143062683E1,-1.303890207E0,-1.183019664E1,-2.355205840E0,1.213262860E1
1.144070583E1,-3.679632345E-1,-5.854888369E0,-2.019888487E0,6.204439077E0
1.145078383E1,-9.059469818E-1,-3.243317206E0,-3.038610279E0,4.535746781E0
1.146086283E1,-1.970705802E0,-1.149424018E0,-4.612873691E0,5.146208373E0
1.147094083E1,-2.568840296E0,1.034294681E0,-5.018593858E0,5.731927273E0
1.148101983E1,-2.725542167E0,3.215131872E0,-4.196985800E0,5.948137764E0
1.149109883E1,-2.672803790E0,5.643822595E0,-3.535890242E0,7.176289667E0
1.150117683E1,-2.731042643E0,8.365421399E0,-3.595437702E0,9.506105479E0
1.151125583E1,-2.827439255E0,1.160494902E1,-3.335575744E0,1.240142412E1
1.152133383E1,-2.287515840E0,1.375029596E1,-3.196809037E0,1.430115225E1
1.153141283E1,-1.386385941E0,1.439164430E1,-4.222435221E0,1.506221932E1
1.154149083E1,-5.019696497E-1,1.445952930E1,-5.494986398E0,1.547658996E1
1.155156983E1,3.163267654E-1,1.436293213E1,-6.038499711E0,1.558388144E1
1.156164783E1,9.165672065E-1,1.393169647E1,-5.366999034E0,1.495783876E1
1.157172683E1,1.310028906E0,1.340006177E1,-4.149162592E0,1.408876792E1
1.158180483E1,1.622141291E0,1.283263978E1,-3.011443530E0,1.328069193E1
1.159188383E1,2.076049240E0,1.211451399E1,-1.972017187E0,1.244830436E1
1.160196183E1,2.620694281E0,1.100103573E1,-9.843289076E-1,1.135163993E1
1.161204083E1,2.785928702E0,9.619228742E0,6.182378054E-2,1.001472828E1
1.162211883E1,2.497012222E0,8.835297217E0,8.013315229E-1,9.216272520E0
1.163219783E1,2.275575972E0,8.679443192E0,1.087477446E0,9.038450494E0
1.164227583E1,2.001144068E0,8.547121872E0,1.204163751E0,8.860467268E0
1.165235483E1,1.612460494E0,8.479905789E0,1.180012484E0,8.712132948E0
1.166243283E1,1.241748630E0,8.513019741E0,9.949885279E-1,8.660453044E0
1.167251183E1,9.900537702E-1,8.613588926E0,6.691588676E-1,8.696084995E0
1.168259083E1,7.821791142E-1,8.785070220E0,2.393844241E-1,8.823070204E0
1.169266883E1,5.178134845E-1,8.909851556E0,-3.580858254E-1,8.932066447E0
1.170274783E1,1.851857051E-1,8.977243640E0,-1.275223355E0,9.069255301E0
1.171282583E1,-1.250551321E-1,8.948771208E0,-2.178578997E0,9.210990792E0
1.172290483E1,-2.651120268E-1,8.806963364E0,-2.800309929E0,9.245248714E0
1.173298283E1,-2.666320105E-1,8.550141374E0,-3.096140449E0,9.097367522E0
1.174306183E1,-2.712209053E-1,8.305555851E0,-2.982142548E0,8.828872689E0
1.175313983E1,-3.507674503E-1,8.133941242E0,-2.573832648E0,8.538656360E0
1.176321883E1,-4.077824807E-1,7.890521069E0,-2.147674123E0,8.187741656E0
1.177329683E1,-2.934607901E-1,7.243328437E0,-2.306109109E0,7.607237692E0
1.178337583E1,1.320206277E-1,5.655082578E0,-4.250949168E0,7.075871483E0
1.179345383E1,6.131260233E-1,4.959725845E0,-6.822919478E0,8.457365677E0
1.180353283E1,8.721310718E-1,5.778220262E0,-4.991723564E0,7.685424265E0
1.181361083E1,1.191623520E0,4.955472581E0,-1.391151860E0,5.283178836E0
1.182368983E1,5.086304323E-1,2.694940179E0,8.764884169E-1,2.879173394E0
1.183376783E1,-7.462375952E-1,-2.633074883E0,3.009131541E0,4.067533223E0
1.184384683E1,-1.774456142E0,-1.157299633E1,4.010365480E0,1.237602400E1
1.185392483E1,-2.104520941E0,-2.326919349E1,4.893105594E0,2.387104641E1
1.186400383E1,-4.034140259E0,-3.682559578E1,7.375983049E0,3.777305810E1
1.187408283E1,-6.912897602E0,-4.888453783E1,1.023235725E1,5.042010836E1
1.188416083E1,-5.483327050E0,-5.407939600E1,9.295207626E0,5.514570548E1
1.189423983E1,1.356318096E0,-4.958269538E1,-6.136782635E0,4.997942958E1
1.190431783E1,6.000909131E0,-3.115389951E1,-1.681802478E1,3.590852716E1
1.191439683E1,3.018764244E0,-1.900589968E1,-1.957132076E0,1.934341041E1
1.192447483E1,3.048821564E-1,-1.503227577E1,3.615386063E0,1.546393496E1
1.193455383E1,-9.251259953E-1,-1.136986874E1,3.020775687E0,1.180062960E1
1.194463183E1,-1.791746797E0,-8.001867843E0,1.953290455E0,8.429447738E0
1.195471083E1,-2.519623697E0,-5.264285674E0,8.718385649E-1,5.900958373E0
1.196479258E1,-3.195923184E0,-2.555675874E0,2.055483230E-1,4.097274007E0
1.197487158E1,-4.194505996E0,1.239217955E-1,-5.955237480E-1,4.238382438E0
1.198494958E1,-5.963862927E0,2.518815612E0,-1.578076966E0,6.663514088E0
1.199502858E1,-7.980052466E0,5.488412374E0,-9.338804466E-1,9.730161377E0
1.200510658E1,-8.103423454E0,8.571153928E0,1.189797288E-1,1.179594454E1
1.201518558E1,-6.356275417E0,1.066875133E1,-1.586179453E0,1.251960292E1
1.202526358E1,-3.797713357E0,1.209735943E1,-4.574874390E0,1.347954775E1
1.203534258E1,-1.308550145E0,1.304893179E1,-7.666167498E0,1.519068954E1
1.204542158E1,4.205709261E-1,1.367788755E1,-9.753707101E0,1.680465084E1
1.205549958E1,1.233496308E0,1.366115398E1,-9.304359103E0,1.657467163E1
1.206557858E1,1.382306339E0,1.298395987E1,-6.979688593E0,1.480574340E1
1.207565658E1,1.429469980E0,1.184172267E1,-4.454028815E0,1.273217000E1
1.208573558E1,1.534769125E0,9.946476352E0,-1.959331799E0,1.025314045E1
1.209581358E1,1.556205602E0,8.127480653E0,1.269722513E-1,8.276100506E0
1.210589258E1,1.555677452E0,7.326893334E0,1.385668488E0,7.617320751E0
1.211597058E1,1.625905290E0,7.152877273E0,1.958164694E0,7.592208523E0
1.212604958E1,1.763617889E0,7.175573825E0,2.337160748E0,7.749937299E0
1.213612758E1,1.948539300E0,7.267307868E0,2.631400825E0,7.970874441E0
1.214620658E1,2.131653629E0,7.714322242E0,2.615195852E0,8.419855355E0
1.215628458E1,2.152795845E0,8.255183843E0,2.380876871E0,8.857266221E0
1.216636358E1,1.922683790E0,8.706889438E0,2.025647410E0,9.143844053E0
1.217644158E1,1.698421435E0,9.152458965E0,1.578105032E0,9.441533560E0
1.218652058E1,1.440819426E0,9.607099278E0,1.068421955E0,9.773118368E0
1.219659858E1,1.071320566E0,9.881532497E0,3.762010843E-1,9.946554152E0
1.220667758E1,4.948763193E-1,9.716650956E0,-9.292593920E-1,9.773521955E0
1.221675558E1,3.272408858E-2,9.144436001E0,-2.910986027E0,9.596646304E0
1.222683458E1,-2.677162305E-1,8.688790551E0,-5.041043658E0,1.004882453E1
1.223691258E1,-4.653328237E-1,8.637671269E0,-6.665774388E0,1.092055162E1
1.224699158E1,-5.199319308E-1,8.921571130E0,-7.257049513E0,1.151214699E1
1.225706958E1,-4.225620492E-1,9.298396697E0,-6.750671282E0,1.149827390E1
1.226714858E1,-8.892840251E-2,9.446517195E0,-5.362328278E0,1.086274182E1
1.227722758E1,3.168614933E-1,9.393077736E0,-3.119363251E0,9.902562177E0
1.228730558E1,3.702996357E-1,8.908134813E0,-9.493203118E-2,8.916333314E0
1.229738458E1,5.856495184E-1,7.748115056E0,2.703147916E0,8.226984923E0
1.230746258E1,1.230451809E0,6.214463480E0,4.864979317E0,7.987589859E0
1.231754158E1,1.282016942E0,4.640302979E0,5.874656636E0,7.595233358E0
1.232761958E1,6.306314175E-1,1.644579688E0,6.081053993E0,6.330999605E0
1.233769858E1,5.868718788E-1,-6.242108531E0,5.110505072E0,8.088609250E0
1.234777658E1,1.348456953E0,-2.314539858E1,-1.029533293E0,2.320749341E1
1.235785558E1,-4.930916029E-1,-4.278538203E1,3.501570010E-1,4.278965605E1
1.236793358E1,-8.950376853E0,-6.190587077E1,3.355403652E0,6.263948288E1
1.237801258E1,-1.850153757E1,-6.735088686E1,-3.895584637E0,6.995444541E1
1.238809058E1,-8.443399283E0,-3.717120131E1,-8.844351046E0,3.913070078E1
1.239816958E1,-1.793177319E-1,-1.656887843E1,-6.457372606E0,1.778363147E1
1.240824758E1,-1.581615993E0,-1.090282356E1,-1.335369569E0,1.109758003E1
1.241832658E1,-1.531436358E0,-6.916549188E0,1.138197949E0,7.174917739E0
1.242840558E1,-1.775427511E0,-4.856326023E0,1.951395957E0,5.526661874E0
1.243848358E1,-2.444684904E0,-3.852194204E0,1.926538274E0,4.952517964E0
1.244856258E1,-3.638584306E0,-3.049299574E0,1.447236745E0,4.963065367E0
1.245864058E1,-4.625710083E0,-1.757963632E0,5.343601546E-1,4.977265382E0
1.246871958E1,-4.791762237E0,9.491025031E-2,-7.261913665E-1,4.847406233E0
1.247879758E1,-4.136517404E0,2.385367532E0,-2.130908840E0,5.228912600E0
1.248887658E1,-2.960578601E0,4.828338910E0,-3.253488438E0,6.531697275E0
1.249895458E1,-1.549538168E0,7.080162469E0,-3.886883980E0,8.224210369E0
1.250903358E1,-1.958004481E-1,8.897850730E0,-4.075015220E0,9.788556302E0
1.251911158E1,8.813252337E-1,1.024030128E1,-3.543556527E0,1.087185804E1
1.252919058E1,1.645628533E0,1.094917093E1,-2.466978291E0,1.134365105E1
1.253926858E1,2.098378733E0,1.090157927E1,-1.392747127E0,1.118871612E1
1.254934758E1,2.181105871E0,1.067830451E1,-4.220783383E-1,1.090695008E1
1.255942558E1,2.188738388E0,1.058367317E1,5.623120382E-1,1.082224137E1
1.256950458E1,2.251717870E0,1.043468144E1,1.427877198E0,1.076994166E1
1.257958258E1,2.331611155E0,1.029945405E1,1.942616948E0,1.073726804E1
1.258966158E1,2.449933803E0,1.001928354E1,2.035625099E0,1.051341942E1
1.259973958E1,2.582980325E0,9.492134247E0,1.743850646E0,9.990666394E0
1.260981858E1,2.468096278E0,8.543104250E0,1.417040554E0,9.004672864E0
1.261989658E1,2.197852004E0,7.868971741E0,5.978970963E-1,8.191993080E0
1.262997558E1,1.942626888E0,7.848575483E0,-5.318913871E-1,8.102891137E0
1.264005458E1,1.251489799E0,8.332647171E0,-1.494436200E0,8.557603353E0
1.265013258E1,5.860379197E-1,9.055095223E0,-2.024967525E0,9.297240635E0
1.266021158E1,3.259559602E-1,9.464551762E0,-2.232136568E0,9.729667055E0
1.267028958E1,1.485355036E-1,9.727491694E0,-2.170369506E0,9.967781160E0
1.268036858E1,3.604866922E-2,9.861287098E0,-1.957215691E0,1.005370459E1
1.269044658E1,-6.448806435E-2,9.725093751E0,-1.715616342E0,9.875471969E0
1.270052558E1,-1.030957675E-1,9.207606980E0,-1.572280036E0,9.341451683E0
1.271060358E1,1.173216046E-1,8.533286190E0,-1.512963542E0,8.667167717E0
1.272068258E1,4.945019513E-1,8.026385803E0,-1.496548653E0,8.179673533E0
1.273076058E1,6.649000481E-1,7.706241975E0,-1.437202338E0,7.867261786E0
1.274083958E1,7.903573224E-1,7.499555765E0,-1.313203359E0,7.654574086E0
1.275091758E1,9.294261838E-1,7.355928268E0,-1.097633475E0,7.495219341E0
1.276099658E1,1.121975288E0,7.190988255E0,-9.274444163E-1,7.336844947E0
1.277107458E1,1.525726259E0,6.923261792E0,-1.114567012E0,7.176465292E0
1.278115358E1,2.105214274E0,6.057364583E0,-2.025867265E0,6.725156579E0
1.279123158E1,2.226827297E0,4.753914379E0,-4.107033988E0,6.665297436E0
1.280131058E1,1.198621175E0,4.333310124E0,-4.265300867E0,6.197343047E0
1.281138858E1,3.082795349E-1,3.063010125E0,-3.425248058E0,4.605365519E0
1.282146758E1,-1.810587403E-1,-2.144945812E-1,-1.549814010E0,1.575028146E0
1.283154658E1,-1.398582063E0,-7.385968924E0,-4.001834393E-3,7.517219216E0
1.284162458E1,-6.045991164E0,-2.020833281E1,-3.007390240E0,2.130669191E1
1.285170358E1,-1.223622846E1,-3.606430233E1,-1.760396366E-1,3.808398850E1
1.286178158E1,-1.797556064E1,-4.858750395E1,2.881368710E0,5.188611188E1
1.287186058E1,-1.442839989E1,-5.144518325E1,-2.472762649E-1,5.343076594E1
1.288193858E1,1.440578520E-2,-3.889652520E1,-5.454169325E0,3.927706510E1
1.289201758E1,6.210663959E0,-2.417249242E1,-5.420350199E0,2.553941919E1
1.290209558E1,5.666862963E0,-1.624133612E1,-6.884782143E-1,1.721535179E1
1.291217458E1,3.596342266E0,-1.211176580E1,3.055187720E0,1.299856609E1
1.292225258E1,2.173861171E0,-9.392568444E0,4.126401136E0,1.048681080E1
1.293233158E1,1.044101046E0,-7.459881238E0,3.675554204E0,8.381507847E0
1.294240958E1,-5.108873114E-1,-5.806482194E0,2.355421017E0,6.286831434E0
1.295248858E1,-2.012591455E0,-4.170717183E0,5.932738490E-1,4.668766437E0
1.296256692E1,-3.156963479E0,-2.312797739E0,-1.203167531E0,4.094272084E0
1.297264592E1,-4.004301040E0,-1.052522206E-1,-2.652064301E0,4.804055569E0
1.298272392E1,-4.268117470E0,2.860320488E0,-3.810272591E0,6.396595755E0
1.299280292E1,-4.025661504E0,6.386410212E0,-4.534117543E0,8.806270938E0
1.300288192E1,-3.316349222E0,9.210283250E0,-4.818607973E0,1.091084197E1
1.301295992E1,-2.286650306E0,1.075118654E1,-4.285165905E0,1.179743313E1
1.302303892E1,-1.262749928E0,1.128662076E1,-3.074304607E0,1.176578490E1
1.303311692E1,-3.912752062E-1,1.149553359E1,-1.757044449E0,1.163561747E1
1.304319592E1,2.264385425E-1,1.171487785E1,-6.356484747E-1,1.173429531E1
1.305327392E1,4.920873436E-1,1.206261176E1,2.559735596E-1,1.207535817E1
1.306335292E1,4.912810126E-1,1.204723125E1,8.947175503E-1,1.209039525E1
1.307343092E1,4.171767636E-1,1.194363262E1,1.649351601E0,1.206419319E1
1.308350992E1,4.106292707E-1,1.185967947E1,2.316981422E0,1.209086500E1
1.309358792E1,2.940710932E-1,1.182070193E1,2.650774990E0,1.211784139E1
1.310366692E1,1.590710168E-1,1.176581879E1,2.775521827E0,1.208980218E1
1.311374492E1,1.751795112E-1,1.166170795E1,2.601820346E0,1.194971084E1
1.312382392E1,3.784184946E-1,1.115526189E1,2.146298858E0,1.136616326E1
1.313390192E1,3.626162481E-1,1.010206257E1,1.985692801E0,1.030175396E1
1.314398092E1,1.139823329E-1,9.245582891E0,1.957365965E0,9.451194448E0
1.315405892E1,3.713946730E-2,8.789858505E0,1.534292430E0,8.922838401E0
1.316413792E1,1.796443719E-1,8.658470399E0,4.701512583E-1,8.673086184E0
1.317421592E1,2.553867184E-1,8.667939965E0,-6.845773906E-1,8.698681039E0
1.318429492E1,1.236691958E-1,8.746737043E0,-1.563263045E0,8.886196842E0
1.319437392E1,-1.745808294E-1,8.913897244E0,-2.142298193E0,9.169377520E0
1.320445192E1,-5.272545451E-1,9.152581172E0,-2.533189237E0,9.511297870E0
1.321453092E1,-7.905374166E-1,9.453426849E0,-2.846784768E0,9.904363287E0
1.322460892E1,-9.028485422E-1,9.765750611E0,-3.046753696E0,1.026974822E1
1.323468792E1,-8.405131303E-1,9.714387499E0,-3.110072025E0,1.023466339E1
1.324476592E1,-6.117960741E-1,9.070623089E0,-3.354382728E0,9.690324099E0
1.325484492E1,-2.881924488E-1,7.912243475E0,-4.090176466E0,8.911576472E0
1.326492292E1,-1.800933650E-1,6.719229634E0,-5.089485501E0,8.431093829E0
1.327500192E1,-4.310149303E-1,6.019267049E0,-5.350316927E0,8.064938990E0
1.328507992E1,-3.669152673E-1,5.147177639E0,-3.719841893E0,6.361233227E0
1.329515892E1,-4.432363419E-1,4.193661073E0,-4.742884192E-1,4.243607092E0
1.330523692E1,-2.114136248E0,1.992890139E0,1.585167446E0,3.309673551E0
1.331531592E1,-4.971248953E0,-3.021168035E0,1.632239871E0,6.041935075E0
1.332539392E1,-5.191464450E0,-1.632723874E1,-6.854555254E0,1.845304733E1
1.333547292E1,-3.966300278E0,-3.346328540E1,-6.734517764E0,3.436388710E1
1.334555092E1,-4.140849021E0,-4.375559415E1,6.368508084E-1,4.395570758E1
1.335562992E1,-5.310731277E0,-5.103944262E1,1.817579796E0,5.134717291E1
1.336570792E1,-3.022518741E0,-5.449733627E1,-2.783831598E-1,5.458179895E1
1.337578692E1,6.495993465E-1,-4.153976137E1,3.650458832E0,4.170491103E1
1.338586592E1,2.074859770E0,-2.290456113E1,4.544052547E0,2.344296007E1
1.339594392E1,1.849804971E0,-1.268582906E1,3.945431273E0,1.341336890E1
1.340602292E1,1.717203130E0,-7.193156987E0,2.767384257E0,7.896119912E0
1.341610092E1,1.254704890E0,-4.637699214E0,1.541637118E0,5.045709402E0
1.342617992E1,-2.276613414E-2,-4.105014360E0,1.118602833E0,4.254754222E0
1.343625792E1,-1.586742539E0,-4.729481204E0,8.117478991E-1,5.054174413E0
1.344633692E1,-2.503712838E0,-4.557321049E0,-2.540498257E-2,5.199846011E0
1.345641492E1,-3.065125063E0,-3.059630435E0,-1.691324669E0,4.649398798E0
1.346649392E1,-3.483605025E0,-6.354373902E-1,-3.917932110E0,5.281048823E0
1.347657192E1,-3.775612051E0,2.696324800E0,-6.421475379E0,7.922168884E0
1.348665092E1,-3.608032020E0,6.418374601E0,-7.254649816E0,1.033650674E1
1.349672892E1,-3.117141309E0,8.388485742E0,-6.164927039E0,1.086690335E1
1.350680792E1,-2.714453507E0,9.528357164E0,-5.422154649E0,1.129414048E1
1.351688592E1,-2.402255168E0,1.033601552E1,-5.248316928E0,1.183844911E1
1.352696492E1,-2.364911487E0,1.102790485E1,-4.996242292E0,1.233571761E1
1.353704292E1,-2.546445752E0,1.187882325E1,-4.603762559E0,1.299174574E1
1.354712192E1,-3.063628761E0,1.290879976E1,-3.854230497E0,1.381586136E1
1.355719992E1,-3.948445221E0,1.373780864E1,-2.837055586E0,1.457279967E1
1.356727892E1,-5.044077778E0,1.282279658E1,-2.554535667E0,1.401401032E1
1.357735692E1,-5.835777329E0,9.866701620E0,-2.924687807E0,1.183054930E1
1.358743592E1,-4.715379474E0,7.090185181E0,-3.769571292E0,9.312099506E0
1.359751492E1,-2.231152774E0,6.379656678E0,-4.521715014E0,8.131664571E0
1.360759292E1,-4.564348964E-1,6.699229817E0,-4.368230866E0,8.010583865E0
1.361767192E1,5.480378884E-1,7.219143768E0,-3.054081427E0,7.857722038E0
1.362774992E1,1.205350736E0,7.886738505E0,-1.382311163E0,8.097178447E0
1.363782892E1,1.660359277E0,8.534115325E0,-3.694928661E-2,8.694209715E0
1.364790692E1,1.945507811E0,8.957229790E0,7.149880283E-1,9.193920493E0
1.365798592E1,2.203327191E0,9.295602897E0,1.017597372E0,9.607205023E0
1.366806392E1,2.321058247E0,9.583422732E0,1.163920362E0,9.928948245E0
1.367814292E1,2.361557670E0,9.797241960E0,1.394060411E0,1.017380504E1
1.368822092E1,2.392863224E0,9.850303688E0,1.648086848E0,1.026988157E1
1.369829992E1,2.397115612E0,9.733911937E0,1.877105328E0,1.019895726E1
1.370837792E1,2.417261609E0,9.517201261E0,2.046287497E0,1.003033230E1
1.371845692E1,2.756044167E0,9.186312590E0,1.862448698E0,9.769996602E0
1.372853492E1,3.342448269E0,8.540930840E0,1.509139463E0,9.294996609E0
1.373861392E1,3.353854725E0,7.813198074E0,1.508643619E0,8.635416100E0
1.374869192E1,2.918264641E0,7.389657932E0,1.486198497E0,8.082827404E0
1.375877092E1,2.680871193E0,7.016023191E0,1.336349562E0,7.628727412E0
1.376884992E1,2.580957481E0,6.538572305E0,9.774052195E-1,7.097153674E0
1.377892792E1,2.486928990E0,5.553503578E0,-2.252136970E-1,6.089083593E0
1.378900692E1,2.124110136E0,4.742767832E0,-2.811603241E0,5.908536483E0
1.379908492E1,1.511943787E0,4.861007304E0,-3.785653182E0,6.344015766E0
1.380916392E1,1.285128977E0,3.303810160E0,-4.874030515E0,6.026847561E0
1.381924192E1,1.381337163E0,-2.079731816E-1,-4.460459583E0,4.674082251E0
1.382932092E1,3.430918103E-1,-7.919318606E0,-7.314652773E0,1.078598463E1
1.383939892E1,-2.503978302E0,-2.064322999E1,-9.553793136E0,2.288422634E1
1.384947792E1,-9.960678070E0,-3.365090617E1,-2.697260939E0,3.519763927E1
1.385955592E1,-2.764528477E1,-4.797421991E1,5.856972317E0,5.567846685E1
1.386963492E1,-3.498101910E1,-5.901239247E1,7.644940935E0,6.902593197E1
1.387971292E1,-1.325480524E1,-4.704382967E1,3.965347767E0,4.903606585E1
1.388979192E1,-2.552350563E-1,-2.729779878E1,2.047421126E0,2.737566248E1
1.389986992E1,2.221921483E0,-1.639938402E1,2.941830089E0,1.680866133E1
1.390994892E1,3.254032229E0,-9.913519106E0,2.590004293E0,1.075056785E1
1.392002692E1,3.426382418E0,-5.716207032E0,1.590046216E0,6.851522916E0
1.393010592E1,2.730857871E0,-3.168655863E0,9.462759590E-1,4.288753068E0
1.394018392E1,1.076547831E0,-1.634427752E0,1.206502783E-1,1.960832935E0
1.395026292E1,-6.900248028E-1,-2.735257316E-1,-1.127099934E0,1.349557266E0
1.396033804E1,-2.017204908E0,1.604594674E0,-3.403195285E0,4.269142519E0
1.397041604E1,-3.038309732E0,4.199158625E0,-7.093381854E0,8.785233367E0
1.398049504E1,-3.511443911E0,6.858993875E0,-1.043150289E1,1.296889694E1
1.399057304E1,-3.344816976E0,8.867800720E0,-1.047416768E1,1.412564614E1
1.400065204E1,-2.551425533E0,1.033417482E1,-8.095311611E0,1.337307038E1
1.401073004E1,-1.627909569E0,1.132986209E1,-5.567731023E0,1.272853068E1
1.402080904E1,-9.095744482E-1,1.174828533E1,-3.549323051E0,1.230638972E1
1.403088704E1,-2.831186736E-1,1.168617504E1,-1.989177741E0,1.185764189E1
1.404096604E1,2.585445803E-1,1.159497601E1,-7.227795893E-1,1.162035819E1
1.405104404E1,7.292305300E-1,1.165488191E1,3.765062358E-1,1.168374111E1
1.406112304E1,1.107369381E0,1.166564195E1,1.047685390E0,1.176482528E1
1.407120104E1,1.541639457E0,1.140822413E1,1.205756532E0,1.157489002E1
1.408128004E1,2.227032095E0,1.070297508E1,9.993341786E-1,1.097779651E1
1.409135804E1,2.724127141E0,9.710466356E0,7.639317814E-1,1.011422846E1
1.410143704E1,2.823689728E0,8.577102301E0,5.127008253E-1,9.044488360E0
1.411151504E1,2.811873382E0,7.533998789E0,2.199775153E-1,8.044635466E0
1.412159404E1,2.848708502E0,6.827346405E0,3.148791410E-2,7.397890953E0
1.413167204E1,2.867554078E0,6.520254148E0,-3.907167971E-2,7.123068660E0
1.414175104E1,2.848335157E0,6.876636094E0,-1.277633431E-1,7.444290471E0
1.415183004E1,2.632020923E0,7.871832199E0,-3.356576604E-1,8.306981543E0
1.416190804E1,2.387513314E0,8.897391724E0,-6.517745107E-1,9.235183232E0
1.417198704E1,2.196049892E0,9.713732611E0,-9.557794386E-1,1.000463646E1
1.418206504E1,2.004022945E0,1.026519521E1,-1.199827017E0,1.052757929E1
1.419214404E1,1.737714285E0,1.051320136E1,-1.395553790E0,1.074684252E1
1.420222204E1,1.241821135E0,1.040972552E1,-1.509042399E0,1.059158695E1
1.421230104E1,6.946414720E-1,9.973160706E0,-1.442254332E0,1.010081971E1
1.422237904E1,2.871779568E-1,9.625570047E0,-1.311840373E0,9.718795969E0
1.423245804E1,2.991435528E-3,9.364229913E0,-1.078209098E0,9.426099176E0
1.424253604E1,-1.883294606E-1,9.010604344E0,-7.981344116E-1,9.047843786E0
1.425261504E1,-3.564899741E-1,8.475995756E0,-2.982313871E-1,8.488729653E0
1.426269304E1,-5.607377484E-1,7.908877818E0,3.818570960E-1,7.937921013E0
1.427277204E1,-6.016280584E-1,6.862640199E0,1.062216744E0,6.970372388E0
1.428285004E1,-4.099746019E-1,5.505748199E0,1.611255237E0,5.751302969E0
1.429292904E1,-5.104683584E-1,3.811795791E0,1.233062152E0,4.038664057E0
1.430300804E1,-7.347774911E-1,-1.001966010E0,-2.691195037E0,2.964180254E0
1.431308604E1,-9.807938272E-1,-1.019245234E1,-7.487711645E0,1.268518297E1
1.432316504E1,-2.246121354E0,-2.654868859E1,-9.982531453E0,2.845222068E1
1.433324304E1,-5.792774566E0,-4.338574139E1,-2.815137298E0,4.386118775E1
1.434332204E1,-1.482016451E1,-5.551190771E1,4.710885304E0,5.764895154E1
1.435340004E1,-1.875413378E1,-6.064515494E1,2.505603243E0,6.352818586E1
1.436347904E1,-3.803731896E0,-4.257707614E1,-1.188407990E0,4.276316291E1
1.437355704E1,1.939780317E0,-2.314868706E1,1.587023352E0,2.328396666E1
1.438363604E1,1.878835520E0,-1.439778504E1,4.286695536E0,1.513941860E1
1.439371404E1,1.839932678E0,-8.873771896E0,4.430462197E0,1.008752572E1
1.440379304E1,1.285011886E0,-5.501738178E0,3.484034210E0,6.637685810E0
1.441387104E1,-2.967431246E-1,-4.069160403E0,2.647823900E0,4.863855906E0
1.442395004E1,-2.086384632E0,-3.567502629E0,1.895786598E0,4.546876144E0
1.443402804E1,-3.440415736E0,-2.874488291E0,9.038333595E-1,4.573407713E0
1.444410704E1,-4.699509254E0,-1.718786117E0,-3.585986263E-1,5.016792393E0
1.445418504E1,-5.690590965E0,4.179332471E-1,-1.902722565E0,6.014802315E0
1.446426404E1,-6.010188078E0,3.675777860E0,-3.579321606E0,7.902230493E0
1.447434204E1,-5.362313075E0,7.539413311E0,-5.138022653E0,1.058283664E1
1.448442104E1,-3.875349762E0,1.048935524E1,-6.646085059E0,1.300828028E1
1.449449904E1,-2.157900319E0,1.228171863E1,-8.066478991E0,1.485143864E1
1.450457804E1,-7.501708710E-1,1.319809894E1,-8.659011852E0,1.580288133E1
1.451465604E1,6.240674794E-2,1.344070460E1,-7.703496707E0,1.549194295E1
1.452473504E1,6.563752462E-1,1.340298070E1,-5.586370193E0,1.453541372E1
1.453481404E1,1.085924864E0,1.288583775E1,-3.492707385E0,1.339488903E1
1.454489204E1,1.431258643E0,1.211045836E1,-1.948907236E0,1.234949158E1
1.455497104E1,1.781046539E0,1.138832021E1,-8.055333321E-1,1.155486252E1
1.456504904E1,2.190178411E0,1.069695479E1,1.410379113E-1,1.091978090E1
1.457512804E1,2.648273551E0,9.898685889E0,7.272622110E-1,1.027259682E1
1.458520604E1,2.954061880E0,9.194278836E0,7.719557693E-1,9.687990536E0
1.459528504E1,3.060668900E0,8.772842522E0,4.228980448E-1,9.301037727E0
1.460536304E1,2.998397223E0,8.416771647E0,1.463744458E-1,8.936098497E0
1.461544204E1,2.834933047E0,7.905932575E0,1.679027975E-1,8.400524187E0
1.462552004E1,2.686044225E0,7.307544898E0,4.259510223E-1,7.797209776E0
1.463559904E1,2.534375345E0,6.861267273E0,7.213733339E-1,7.349858942E0
1.464567704E1,2.556030508E0,6.770672268E0,8.019824642E-1,7.281378358E0
1.465575604E1,2.518830814E0,7.543461923E0,5.110097375E-1,7.969282114E0
1.466583404E1,2.298930044E0,8.785687101E0,-1.134921900E-1,9.082194540E0
1.467591304E1,1.955378642E0,9.906544547E0,-1.068153568E0,1.015401805E1
1.468599104E1,1.470304595E0,1.068981300E1,-2.129905019E0,1.099865414E1
1.469607004E1,8.818519217E-1,1.076765815E1,-2.826653974E0,1.116736753E1
1.470614904E1,3.006164664E-1,1.018999300E1,-3.010997388E0,1.062978988E1
1.471622704E1,-1.802148409E-1,9.388549068E0,-2.790746807E0,9.796203282E0
1.472630604E1,-4.124051432E-1,8.686828226E0,-2.543683820E0,9.060981735E0
1.473638404E1,-4.826113459E-1,7.846582167E0,-2.639043721E0,8.292545880E0
1.474646304E1,-5.050611457E-1,6.566057727E0,-3.013649100E0,7.242256674E0
1.475654104E1,-3.863727544E-1,5.006600634E0,-3.272472593E0,5.993697581E0
1.476662004E1,-8.477731794E-2,4.525240885E0,-1.886912717E0,4.903614163E0
1.477669804E1,3.287417199E-1,3.480031207E0,-6.673237190E-1,3.558652731E0
1.478677704E1,1.784331943E-1,8.152345937E-1,-9.006115437E-1,1.227822056E0
1.479685504E1,-5.004225495E-1,-2.678322977E0,-9.683692248E-1,2.891638921E0
1.480693404E1,-1.595069121E0,-8.186805333E0,-1.871072756E0,8.548037221E0
1.481701204E1,-3.046950163E0,-1.651284106E1,-3.105691291E0,1.707639141E1
1.482709104E1,-6.103399712E0,-2.569611543E1,1.672724530E0,2.646393478E1
1.483716904E1,-1.163267301E1,-3.698254440E1,5.990726205E0,3.922902589E1
1.484724804E1,-1.412023760E1,-4.969007365E1,3.418546565E0,5.177036787E1
1.485732604E1,-6.488734732E0,-5.175165220E1,-3.973269575E0,5.230797315E1
1.486740504E1,1.636545029E0,-3.642344300E1,-3.030310156E0,3.658590246E1
1.487748304E1,2.169559959E0,-2.111706964E1,2.478980870E0,2.137248153E1
1.488756204E1,1.551677664E0,-1.319273354E1,4.097810298E0,1.390136580E1
1.489764104E1,1.423131744E0,-8.567030472E0,3.355278522E0,9.310059561E0
1.490771904E1,7.121085669E-1,-6.147699972E0,2.769527847E0,6.780235840E0
1.491779804E1,-8.997957109E-1,-5.373232750E0,2.286807450E0,5.908532036E0
1.492787604E1,-2.618704181E0,-4.997485995E0,1.353828059E0,5.802183061E0
1.493795504E1,-4.343431362E0,-4.088204200E0,2.470951474E-1,5.969913365E0
1.494803304E1,-5.833810326E0,-2.305185834E0,-1.020035734E0,6.355131591E0
1.495811167E1,-6.530154068E0,2.371882099E-1,-2.237535303E0,6.906933809E0
1.496818967E1,-6.409389185E0,3.711817174E0,-2.803332939E0,7.919376997E0
1.497826867E1,-5.412024348E0,7.195154396E0,-3.843785908E0,9.789532391E0
1.498834667E1,-3.478461814E0,9.888036940E0,-6.624250971E0,1.239974484E1
1.499842567E1,-1.470864174E0,1.186453149E1,-9.740802296E0,1.542121196E1
1.500850367E1,-2.443704911E-1,1.327977285E1,-1.120099413E1,1.737453175E1
1.501858267E1,1.125451604E-1,1.381824762E1,-9.863976817E0,1.697806445E1
1.502866067E1,4.901472375E-2,1.370354162E1,-7.120338687E0,1.544307866E1
1.503873967E1,4.907509625E-2,1.328612994E1,-4.414961813E0,1.400055517E1
1.504881767E1,2.357528646E-1,1.266395112E1,-2.139754069E0,1.284561344E1
1.505889667E1,5.595047168E-1,1.189338165E1,-3.737202568E-1,1.191239856E1
1.506897467E1,1.045832992E0,1.099268590E1,6.253835414E-1,1.106001874E1
1.507905367E1,1.484436731E0,9.813293152E0,1.187864783E0,9.995763985E0
1.508913267E1,1.573646531E0,8.740320894E0,1.728329504E0,9.047469016E0
1.509921067E1,1.661207415E0,8.123955367E0,2.086996835E0,8.550661768E0
1.510928967E1,1.815181999E0,7.484843586E0,2.408179860E0,8.069516679E0
1.511936767E1,1.892804664E0,6.734035369E0,2.670473090E0,7.487413997E0
1.512944667E1,2.053680862E0,6.274551222E0,2.705790272E0,7.135047240E0
1.513952467E1,2.341552153E0,6.579858325E0,2.239653018E0,7.334401660E0
1.514960367E1,2.439888287E0,7.461880985E0,1.523793024E0,7.997166240E0
1.515968167E1,2.231527435E0,8.288101328E0,8.773850875E-1,8.627986028E0
1.516976067E1,1.986916915E0,8.897308694E0,1.290268533E-1,9.117378392E0
1.517983867E1,1.895482689E0,9.597492887E0,-1.075122133E0,9.841778902E0
1.518991767E1,1.760276352E0,1.028355430E1,-2.831111891E0,1.081042351E1
1.519999567E1,1.289241323E0,1.009968276E1,-4.685790809E0,1.120813858E1
1.521007467E1,3.518531321E-1,9.252914715E0,-5.900883737E0,1.098001185E1
1.522015267E1,-5.350570697E-1,8.447541450E0,-6.214782153E0,1.050098852E1
1.523023167E1,-8.933745910E-1,8.032922405E0,-5.852305069E0,9.978749177E0
1.524030967E1,-1.085369817E0,7.464177772E0,-5.627347480E0,9.410580062E0
1.525038867E1,-1.323996296E0,5.855374272E0,-6.388559064E0,8.766530726E0
1.526046767E1,-1.343860311E0,3.355698937E0,-8.132903945E0,8.900045083E0
1.527054567E1,-1.260710565E0,2.677069919E0,-7.411000854E0,7.979914043E0
1.528062467E1,-1.205139505E0,1.537089154E0,-3.618575134E0,4.112066426E0
1.529070267E1,-1.521066906E0,-1.598934569E0,1.568001044E-1,2.212424588E0
1.530078167E1,-4.185132616E0,-6.390047180E0,2.483988426E0,8.032324476E0
1.531085967E1,-9.352551270E0,-1.307216044E1,3.098916415E0,1.636932732E1
1.532093867E1,-1.205200258E1,-2.340011733E1,1.576444131E0,2.636856904E1
1.533101667E1,-1.048287770E1,-2.959463187E1,7.744710807E0,3.233749380E1
1.534109567E1,-9.070487434E0,-3.232917582E1,1.225329297E1,3.574342653E1
1.535117367E1,-4.908513592E0,-3.471040294E1,1.107691972E1,3.676416364E1
1.536125267E1,2.072684459E0,-3.710672055E1,2.218443120E0,3.723071609E1
1.537133067E1,6.376859955E0,-3.573110694E1,-2.958380048E0,3.641604534E1
1.538140967E1,5.988698391E0,-2.617216065E1,-7.480575411E-1,2.685900392E1
1.539148767E1,3.214535749E0,-1.665805198E1,2.436861037E0,1.713949321E1
1.540156667E1,8.078138924E-1,-1.172072039E1,2.628080192E0,1.203888098E1
1.541164467E1,-1.090495048E0,-8.818856016E0,1.436864369E0,9.001443223E0
1.542172367E1,-2.690967581E0,-6.926702878E0,2.844834320E-1,7.436494477E0
1.543180167E1,-3.724016512E0,-5.178236294E0,-9.261720622E-1,6.445170657E0
1.544188067E1,-4.452223195E0,-3.070284061E0,-2.574609159E0,5.989786967E0
1.545195967E1,-5.405409978E0,-5.321170896E-1,-4.504481515E0,7.056341782E0
1.546203767E1,-6.348088730E0,3.471437554E0,-7.208293675E0,1.021315852E1
1.547211667E1,-5.881745215E0,7.826439679E0,-9.302882096E0,1.350524713E1
1.548219467E1,-4.041293158E0,9.667498677E0,-8.980719225E0,1.380021372E1
1.549227367E1,-2.337288655E0,1.062910136E1,-7.804734814E0,1.339233361E1
1.550235167E1,-1.358159384E0,1.158361253E1,-6.157596384E0,1.318865685E1
1.551243067E1,-1.059345030E0,1.242042628E1,-5.017721454E0,1.343751202E1
1.552250867E1,-1.058832887E0,1.290988033E1,-4.334638027E0,1.365925415E1
1.553258767E1,-1.115655471E0,1.300930755E1,-3.190717408E0,1.344125916E1
1.554266567E1,-1.270586659E0,1.287929939E1,-2.480363737E0,1.317736497E1
1.555274467E1,-1.283234186E0,1.262328958E1,-2.171102601E0,1.287275480E1
1.556282267E1,-8.987215774E-1,1.218876661E1,-2.076872381E0,1.239706138E1
1.557290167E1,7.318813652E-2,1.046585177E1,-2.012074268E0,1.065776021E1
1.558297967E1,8.370739442E-1,8.239816775E0,-1.583309201E0,8.432208566E0
1.559305867E1,9.215567087E-1,7.079266675E0,-8.287668049E-1,7.186942176E0
1.560313667E1,1.131698184E0,6.644285871E0,-1.486666274E-1,6.741615332E0
1.561321567E1,1.647599337E0,6.621499856E0,2.758242720E-1,6.828976713E0
1.562329367E1,2.135091354E0,6.573212965E0,6.089173436E-1,6.938049012E0
1.563337267E1,2.497686113E0,6.686053702E0,8.248174493E-1,7.184850301E0
1.564345167E1,2.762531653E0,7.033713942E0,8.308295564E-1,7.602301671E0
1.565352967E1,3.022842385E0,7.613754226E0,7.196436545E-1,8.223424864E0
1.566360867E1,3.366087685E0,8.287506081E0,2.104507931E-1,8.947490871E0
1.567368667E1,3.712578481E0,8.916463003E0,-7.497961376E-1,9.687556230E0
1.568376567E1,3.858540772E0,9.504293532E0,-1.672199596E0,1.039308347E1
1.569384367E1,3.506161244E0,9.989006660E0,-2.340379640E0,1.084208456E1
1.570392267E1,2.370747447E0,9.996430285E0,-2.608910680E0,1.059978664E1
1.571400067E1,8.132671519E-1,9.401576080E0,-2.505851165E0,9.763725022E0
1.572407967E1,1.221897040E-1,8.861481049E0,-2.365555412E0,9.172602091E0
1.573415767E1,-1.119477211E-1,8.472345924E0,-2.427091509E0,8.813849950E0
1.574423667E1,-3.647396645E-1,7.812047927E0,-3.320494605E0,8.496282261E0
1.575431467E1,-7.351797795E-1,6.502244723E0,-5.641753850E0,8.639968880E0
1.576439367E1,-1.009447815E0,5.484802303E0,-6.103285106E0,8.267534716E0
1.577447167E1,-3.447623599E-1,4.331872879E0,-2.687049361E0,5.109228708E0
1.578455067E1,1.558575332E-1,1.969602433E0,-1.288797958E-1,1.979958413E0
1.579462867E1,-9.763379565E-1,-1.397258254E0,9.466490114E-1,1.949797626E0
1.580470767E1,-5.036853544E0,-5.962101161E0,2.995275979E0,8.359917587E0
1.581478567E1,-1.091779243E1,-1.247956736E1,6.911373818E0,1.796398845E1
1.582486467E1,-1.385329700E1,-2.136513659E1,8.201408755E0,2.675156080E1
1.583494267E1,-1.219736670E1,-2.939296140E1,9.463070662E0,3.320047651E1
1.584502167E1,-9.767498928E0,-3.461637737E1,6.905208514E0,3.662484843E1
1.585510067E1,-4.565272093E0,-4.220029092E1,-7.957058290E0,4.318588936E1
1.586517867E1,2.099747420E0,-4.298326116E1,-1.988307091E1,4.740576113E1
1.587525767E1,1.994872929E0,-2.749035928E1,-4.864129424E0,2.798855349E1
1.588533567E1,-1.718926451E0,-1.738685245E1,4.681884284E0,1.808804541E1
1.589541467E1,-1.836507525E0,-1.183966445E1,5.845721104E0,1.333127411E1
1.590549267E1,-1.129218087E0,-8.291996158E0,4.929120934E0,9.712289481E0
1.591557167E1,-1.181209775E0,-6.692673334E0,3.940523998E0,7.855880744E0
1.592564967E1,-2.375653845E0,-6.500629722E0,3.055684733E0,7.565654444E0
1.593572867E1,-3.152939717E0,-6.260050128E0,1.813308113E0,7.239982235E0
1.594580667E1,-2.991499262E0,-4.793685971E0,4.311783600E-1,5.666957544E0
1.595588567E1,-2.082962695E0,-2.717494644E0,-5.724517679E-1,3.471485526E0
1.596596404E1,-4.569900164E-1,-4.865286881E-1,-1.592298564E0,1.726547061E0
1.597604304E1,8.500879459E-1,1.591464166E0,-2.978603813E0,3.482454362E0
1.598612104E1,1.552317934E0,4.050066320E0,-4.636276002E0,6.348841102E0
1.599620004E1,1.795368709E0,6.510681086E0,-5.963791006E0,9.009945625E0
1.600627804E1,2.202036126E0,8.731526096E0,-7.727277918E0,1.186588956E1
1.601635704E1,2.249981686E0,1.087580708E1,-9.530614774E0,1.463482884E1
1.602643604E1,1.625294548E0,1.240704551E1,-1.084597926E1,1.655933655E1
1.603651404E1,3.242543473E-1,1.318923106E1,-1.105539963E1,1.721286780E1
1.604659304E1,-1.058904296E0,1.317883120E1,-9.405180303E0,1.622529774E1
1.605667104E1,-1.964019950E0,1.245362209E1,-6.487899749E0,1.417896049E1
1.606675004E1,-2.409759046E0,1.116317317E1,-3.938138918E0,1.208024470E1
1.607682804E1,-2.817106640E0,9.473244817E0,-2.247526879E0,1.013557271E1
1.608690704E1,-3.024272321E0,7.854390539E0,-1.027072200E0,8.478947524E0
1.609698504E1,-2.149881008E0,6.456210764E0,-3.529701696E-1,6.813900037E0
1.610706404E1,-3.855946362E-1,6.202801208E0,-1.393292087E-1,6.216336436E0
1.611714204E1,8.795418330E-1,6.515765825E0,5.443933189E-2,6.575086445E0
1.612722104E1,1.790760080E0,6.843523897E0,5.166820483E-1,7.092785160E0
1.613729904E1,2.276358183E0,7.321189960E0,1.150686359E0,7.752787119E0
1.614737804E1,2.490218926E0,7.826854246E0,1.641167984E0,8.375814590E0
1.615745604E1,2.706158647E0,8.421040115E0,1.899594889E0,9.046859786E0
1.616753504E1,2.888437116E0,8.982875678E0,1.934656549E0,9.632134778E0
1.617761304E1,2.858346468E0,9.431645386E0,1.743334483E0,1.000826130E1
1.618769204E1,2.743683153E0,9.971897707E0,1.191886498E0,1.041091420E1
1.619777104E1,2.582823327E0,1.090082264E1,2.508513987E-1,1.120543783E1
1.620784904E1,2.029928595E0,1.169691988E1,-2.928905038E-1,1.187536650E1
1.621792804E1,1.352766351E0,1.185747039E1,-8.496279162E-1,1.196459144E1
1.622800604E1,5.570773549E-1,1.157246774E1,-1.731233085E0,1.171450011E1
1.623808504E1,-2.810706132E-1,1.095086311E1,-2.727557702E0,1.128893151E1
1.624816304E1,-9.730935558E-1,1.002438231E1,-3.312384517E0,1.060221878E1
1.625824204E1,-1.276999446E0,9.060752989E0,-2.478672137E0,9.480073200E0
1.626832004E1,-9.107451338E-1,8.697515182E0,-1.915524093E-1,8.747166362E0
1.627839904E1,-4.095298480E-1,8.098812924E0,1.432333946E0,8.234686758E0
1.628847704E1,-4.153003190E-1,6.916749163E0,1.984567212E0,7.207801354E0
1.629855604E1,-6.061872055E-1,4.415009176E0,2.245933074E0,4.990389195E0
1.630863404E1,-4.015214284E-1,-2.201378460E0,-1.864956276E-1,2.245454787E0
1.631871304E1,-5.120645021E-1,-1.106737824E1,-4.145657187E0,1.182943552E1
1.632879104E1,-1.626797282E0,-1.975779782E1,-2.982326735E0,2.004772598E1
1.633887004E1,-4.034023315E0,-3.178315581E1,5.080411792E-2,3.203817907E1
1.634894804E1,-9.986270163E0,-4.803584956E1,-1.589469681E0,4.908864277E1
1.635902704E1,-1.909572695E1,-6.213294856E1,-4.735695040E0,6.517343701E1
1.636910504E1,-1.405562820E1,-5.536291597E1,-1.031466383E0,5.712860117E1
1.637918404E1,-1.383574892E0,-2.998227654E1,1.606614887E0,3.005715218E1
1.638926304E1,4.109314987E-1,-1.751495325E1,3.344835395E0,1.783620968E1
1.639934104E1,8.166262311E-1,-1.133018251E1,3.789450656E0,1.197496766E1
1.640942004E1,8.088093808E-1,-7.588367370E0,3.192235930E0,8.272113526E0
1.641949804E1,1.670786324E-1,-6.043511944E0,2.410484247E0,6.508639351E0
1.642957704E1,-9.097671139E-1,-5.493567864E0,1.407817156E0,5.743597585E0
1.643965504E1,-1.899573401E0,-4.889740521E0,3.455768039E-1,5.257125146E0
1.644973404E1,-2.500205094E0,-3.572659873E0,-9.040146232E-1,4.453332069E0
1.645981204E1,-2.512572539E0,-1.572161922E0,-2.436523068E0,3.836842261E0
1.646989104E1,-2.049342375E0,1.181390162E0,-4.660376471E0,5.226336741E0
1.647996904E1,-1.687245067E0,4.501616964E0,-7.514807643E0,8.920968844E0
1.649004804E1,-1.188769859E0,6.862519746E0,-9.392657322E0,1.169313314E1
1.650012604E1,-3.479456571E-1,8.709967412E0,-1.007813694E1,1.332491811E1
1.651020504E1,2.497302682E-1,1.042219178E1,-9.565788115E0,1.414880734E1
1.652028304E1,3.492821845E-1,1.168426884E1,-8.048626857E0,1.419241103E1
1.653036204E1,1.043649787E-1,1.238947580E1,-6.240295894E0,1.387268162E1
1.654044004E1,-2.173735309E-1,1.262550099E1,-4.543999922E0,1.342007682E1
1.655051904E1,-5.346069802E-1,1.262602724E1,-2.676734873E0,1.291771180E1
1.656059704E1,-7.734003970E-1,1.232974181E1,-1.184110871E0,1.241059224E1
1.657067604E1,-9.167760251E-1,1.196225834E1,-2.386614159E-2,1.199736106E1
1.658075404E1,-9.657420708E-1,1.159460881E1,3.879371770E-1,1.164122444E1
1.659083304E1,-8.479782705E-1,1.049033290E1,7.603660762E-1,1.055198124E1
1.660091204E1,-4.428860206E-1,8.942493052E0,1.384752814E0,9.059904546E0
1.661099004E1,1.405566855E-1,7.977094359E0,1.709635079E0,8.159451128E0
1.662106904E1,8.022587451E-1,7.725559421E0,1.640882055E0,7.938537736E0
1.663114704E1,1.433472107E0,7.849739079E0,1.632602106E0,8.144853315E0
1.664122604E1,1.941970684E0,8.128511517E0,1.492701770E0,8.489529327E0
1.665130404E1,2.240147254E0,8.478231731E0,1.220481137E0,8.853713752E0
1.666138304E1,2.370698622E0,8.836190672E0,8.684384090E-1,9.189812992E0
1.667146104E1,2.322624570E0,9.026245061E0,3.906844912E-1,9.328468211E0
1.668154004E1,2.230897836E0,9.060637799E0,-2.917209511E-1,9.335800104E0
1.669161804E1,2.740259024E0,9.100629246E0,-2.900945773E0,9.937100108E0
1.670169704E1,3.329743146E0,9.040373688E0,-6.589595109E0,1.167211675E1
1.671177504E1,2.433760405E0,8.455376719E0,-7.700055036E0,1.169219538E1
1.672185404E1,3.568995716E-1,7.587392639E0,-6.621877002E0,1.007696181E1
1.673193204E1,-6.460052092E-1,7.246192403E0,-5.385515996E0,9.051431357E0
1.674201104E1,-9.309908988E-1,7.306176649E0,-4.377211019E0,8.567784871E0
1.675208904E1,-1.159231919E0,7.604184673E0,-3.702656926E0,8.536809210E0
