"Time (s)","Linear Acceleration x (m/s^2)","Linear Acceleration y (m/s^2)","Linear Acceleration z (m/s^2)","Absolute acceleration (m/s^2)"
2.546979167E-2,-2.602378170E0,-2.318633699E0,-5.704441264E-1,3.531832509E0
3.554779169E-2,-2.278359393E0,-2.486839236E0,-3.414899656E-1,3.389971431E0
4.562579171E-2,-2.147377669E0,-2.507988907E0,-3.670300189E-1,3.322040073E0
5.570279167E-2,-2.306569285E0,-2.422499398E0,-2.709567574E-1,3.355917574E0
6.578079169E-2,-2.338224941E0,-2.304825353E0,1.208897218E-1,3.285442148E0
7.585879171E-2,-2.096532621E0,-2.389633369E0,4.120328218E-1,3.205552638E0
8.593679167E-2,-1.531636040E0,-2.719655190E0,5.784738153E-1,3.174439363E0
9.601479169E-2,-8.410319245E-1,-3.222523338E0,8.954838279E-1,3.448750882E0
1.060927917E-1,-1.503547186E-1,-3.428410233E0,1.207989146E0,3.638109542E0
1.161697917E-1,5.691264564E-1,-3.334960617E0,1.505424142E0,3.702994611E0
1.262477917E-1,1.279750269E0,-3.253549249E0,1.917345574E0,3.987424923E0
1.363257917E-1,1.706001765E0,-3.196399148E0,2.299888549E0,4.291491217E0
1.464037917E-1,1.828238978E0,-3.221014171E0,2.426664078E0,4.427876308E0
1.564817917E-1,1.732008426E0,-3.092915710E0,2.414335808E0,4.288939049E0
1.665597917E-1,1.664508169E0,-2.880197805E0,2.230465727E0,4.005134729E0
1.766377917E-1,1.562002385E0,-2.886072795E0,2.010300808E0,3.848451243E0
1.867147917E-1,1.402043030E0,-2.862406774E0,1.776764184E0,3.649107859E0
1.967927917E-1,1.359754797E0,-2.829409767E0,1.390417304E0,3.433329727E0
2.068707917E-1,1.281837725E0,-2.441106262E0,9.283600903E-1,2.909288606E0
2.169487917E-1,8.119028503E-1,-2.262610941E0,3.828724650E-1,2.434170461E0
2.270267917E-1,5.327754861E-1,-2.154945720E0,-1.330066144E-1,2.223810139E0
2.371047917E-1,3.612082386E-1,-1.924304492E0,-6.394067726E-1,2.059674778E0
2.471827917E-1,2.395592558E-1,-1.658074185E0,-1.316598253E0,2.130734521E0
2.572597917E-1,4.701775342E-1,-1.287726456E0,-1.681266873E0,2.169323544E0
2.673377917E-1,7.052712715E-1,-1.101302164E0,-1.779329065E0,2.208231407E0
2.774157917E-1,4.412209529E-1,-1.168549676E0,-1.594167919E0,2.025229771E0
2.874937917E-1,-4.796295583E-2,-1.237880404E0,-1.293970113E0,1.791370144E0
2.975717917E-1,-8.449700242E-1,-1.421275107E0,-9.776006627E-1,1.920859268E0
3.076497917E-1,-1.687670744E0,-1.752178689E0,-8.908578032E-1,2.590750919E0
3.177277917E-1,-1.594783630E0,-1.931664821E0,-1.348335770E0,2.844762407E0
3.278047917E-1,-9.068581241E-1,-2.139150637E0,-1.441107109E0,2.734071470E0
3.378827917E-1,5.279451013E-2,-2.315784497E0,-8.396508121E-1,2.463870650E0
3.479607917E-1,2.641701865E-1,-2.528400075E0,-3.628442895E-1,2.567926947E0
3.580387917E-1,-2.022323853E-1,-2.447956275E0,-3.761005121E-1,2.484922425E0
3.681167917E-1,-7.077504909E-1,-2.053375784E0,-5.159857911E-1,2.232376358E0
3.781947917E-1,-1.101236529E0,-1.638135618E0,-4.765879829E-1,2.030602448E0
3.882727917E-1,-1.173264286E0,-1.317447561E0,-2.921970606E-1,1.788182396E0
3.983497917E-1,-1.318623728E0,-1.961461062E0,-3.862582952E-1,2.394847282E0
4.084277917E-1,-1.506607618E0,-1.066512693E0,-5.224808782E-1,1.918411350E0
4.185057917E-1,-1.960790094E0,-6.783135608E-2,-4.524961388E-1,2.013467567E0
4.285837917E-1,-2.598890891E0,1.371347487E-2,-8.420557719E-1,2.731937014E0
4.386617917E-1,-2.695916079E0,2.652403732E-1,-8.583474304E-1,2.841667868E0
4.487397917E-1,-2.590680816E0,4.348450027E-1,-7.023367001E-1,2.719189972E0
4.588177917E-1,-2.542061802E0,6.024156784E-1,-8.678871627E-1,2.752855060E0
4.688947917E-1,-2.496599700E0,9.967852311E-1,-7.776944460E-1,2.798463777E0
4.789727917E-1,-2.368701214E0,1.240838511E0,-6.782518727E-1,2.758704633E0
4.890507917E-1,-2.278826585E0,1.301561407E0,-5.385819174E-1,2.679026537E0
4.991287917E-1,-2.185761716E0,1.265550744E0,-7.784528299E-1,2.642945663E0
5.092067917E-1,-1.942740909E0,1.369805869E0,-4.896364832E-1,2.427005200E0
5.192847917E-1,-1.760345203E0,1.496656534E0,-2.793402028E-1,2.327407778E0
5.293627917E-1,-1.466286389E0,1.607596926E0,-3.817968696E-1,2.209102193E0
5.394397917E-1,-1.178494620E0,1.656397350E0,-3.515002526E-1,2.063020644E0
5.495177917E-1,-8.267933697E-1,1.750808686E0,-3.247982115E-2,1.936484772E0
5.595957917E-1,-5.016735613E-1,1.738354848E0,-1.156205034E-1,1.812987049E0
5.696737917E-1,-2.083707923E-1,1.808883378E0,-8.209958553E-2,1.822695204E0
5.797517917E-1,-3.881557167E-2,1.860200443E0,-3.968929186E-2,1.861028634E0
5.898297917E-1,7.900056124E-2,1.997731633E0,-6.510056019E-2,2.000352681E0
5.999077917E-1,1.546904290E-1,2.105125104E0,-6.440123320E-3,2.110810818E0
6.099847917E-1,3.370989990E-1,2.119920606E0,4.364975721E-2,2.146998932E0
6.200627917E-1,7.720382881E-1,2.017465694E0,-8.384629503E-2,2.161768060E0
6.301407917E-1,1.298284773E0,1.808579762E0,8.227295548E-2,2.227840422E0
6.402187917E-1,1.760078570E0,1.661720216E0,9.612764060E-2,2.422484504E0
6.502967917E-1,2.216587653E0,1.389380885E0,2.494524524E-2,2.616154110E0
6.603747917E-1,2.485252594E0,1.344506721E0,6.859763369E-2,2.826461465E0
6.704527917E-1,2.867685640E0,1.270696440E0,2.057348675E-1,3.143344908E0
6.805297917E-1,3.217412871E0,1.017701452E0,4.149739712E-1,3.399950768E0
6.906077917E-1,3.239930499E0,1.161339182E0,4.852007854E-1,3.475813305E0
7.006857917E-1,3.542353755E0,1.083010466E0,7.604502761E-1,3.781463528E0
7.107580417E-1,3.897249339E0,7.306952575E-1,9.294891876E-1,4.072642646E0
7.208360417E-1,4.175567449E0,5.767567804E-1,9.297784786E-1,4.316537956E0
7.309140417E-1,4.281127233E0,5.200455129E-1,8.160640213E-1,4.389129550E0
7.409920417E-1,4.532851621E0,2.891287342E-1,7.643589936E-1,4.605929213E0
7.510690417E-1,4.728897652E0,-1.102790719E-1,6.118279414E-1,4.769587813E0
7.611470417E-1,4.689166406E0,-1.544235036E-1,6.603687483E-1,4.737954737E0
7.712250417E-1,4.236355103E0,-1.846971703E-1,7.228895169E-1,4.301556329E0
7.813030417E-1,3.781384422E0,-1.467627740E-1,8.593296164E-1,3.880574036E0
7.913810417E-1,3.228568774E0,9.502339393E-2,8.143029861E-1,3.331032141E0
8.014590417E-1,2.391905889E0,4.303430852E-1,5.419905518E-1,2.490012592E0
8.115370417E-1,1.419427972E0,5.830460456E-1,2.310769925E-1,1.551810245E0
8.216140417E-1,5.502990067E-1,3.532387760E-1,-1.184061170E-4,6.539163889E-1
8.316920417E-1,-7.172837913E-2,7.830386549E-2,-1.545983353E-1,1.875555944E-1
8.417700417E-1,-2.512846774E-1,-1.114683956E-1,-3.748837066E-1,4.648730856E-1
8.518480417E-1,-2.762756771E-1,-3.676609334E-1,-4.907109091E-1,6.725325330E-1
8.619260417E-1,-1.933750230E-1,-5.796581689E-1,-5.056479138E-1,7.931439371E-1
8.720040417E-1,-6.249387145E-2,-6.803039530E-1,-5.301421925E-1,8.647367789E-1
8.820820417E-1,-5.690334857E-2,-6.669877964E-1,-3.110438061E-1,7.381456231E-1
8.921600417E-1,-4.688122094E-2,-5.837605754E-1,-1.584735775E-1,6.067026726E-1
9.022370417E-1,-1.157111353E-1,-5.146184197E-1,-1.267730440E-1,5.424874095E-1
9.123150417E-1,-2.594409585E-1,-3.406637540E-1,-3.174862683E-2,4.293825562E-1
9.223930417E-1,-4.048132646E-1,-1.662252313E-1,6.784261197E-2,4.428399561E-1
9.324710417E-1,-6.522791255E-1,2.326957941E-2,-4.468047515E-2,6.542215800E-1
9.425490417E-1,-9.750167781E-1,1.641041538E-1,-2.001136467E-1,1.008778153E0
9.526270417E-1,-1.453692656E0,4.774953246E-1,-5.112805367E-1,1.613267464E0
9.627050417E-1,-1.426031817E0,6.314250308E-1,-9.376109701E-1,1.819719386E0
9.727820417E-1,-1.654255076E0,6.200700304E-1,-8.322093531E-1,1.952848972E0
9.828600417E-1,-1.840707580E0,1.067630827E0,-1.040418470E0,2.368651636E0
9.929380417E-1,-1.959578551E0,1.288900869E0,-1.141311007E0,2.608410313E0
1.003016042E0,-2.123284802E0,1.625180381E0,-9.316430095E-1,2.831520496E0
1.013094042E0,-2.348548200E0,1.487455063E0,-1.112565802E0,2.994328619E0
1.023172042E0,-2.494097677E0,1.517004260E0,-1.292426156E0,3.192521028E0
1.033250042E0,-2.514810854E0,1.407893754E0,-1.204714705E0,3.123743903E0
1.043327042E0,-2.715358656E0,1.241311258E0,-9.921505818E-1,3.146170537E0
1.053405042E0,-2.601830871E0,1.269412392E0,-7.442450103E-1,2.989118990E0
1.063483042E0,-2.466681837E0,1.305539998E0,-6.049128780E-1,2.855673924E0
1.073561042E0,-2.327593533E0,1.327405954E0,-5.290347299E-1,2.731222431E0
1.083639042E0,-2.150453889E0,1.322393136E0,-4.126201746E-1,2.558013085E0
1.093717042E0,-1.967783949E0,1.350009243E0,-2.903087023E-1,2.403950450E0
1.103795042E0,-1.737003118E0,1.296376242E0,-1.738207644E-1,2.174392984E0
1.113872042E0,-1.477952169E0,1.279169348E0,1.145177186E-3,1.954640158E0
1.123950042E0,-1.167111261E0,1.113404000E0,1.341390739E-1,1.618582854E0
1.134028042E0,-7.635738587E-1,9.516004336E-1,2.927373433E-1,1.254704577E0
1.144106042E0,-3.666701227E-1,9.081880733E-1,4.083824050E-1,1.061145016E0
1.154184042E0,1.699042994E-1,6.260979250E-1,7.502245192E-1,9.918179832E-1
1.164262042E0,3.028688139E-1,4.672574347E-1,1.334529178E0,1.446038435E0
1.174340042E0,5.769079310E-1,4.837524301E-1,8.125605159E-1,1.107742644E0
1.184417042E0,9.563045186E-1,1.551251695E-1,1.215725450E0,1.554532252E0
1.194495042E0,1.324204311E0,9.469741166E-2,1.516221756E0,2.015294785E0
1.204573042E0,1.792178614E0,-1.127740788E-1,1.538008921E0,2.364337881E0
1.214651042E0,2.364448534E0,-4.423231530E-1,1.796310841E0,3.002165765E0
1.224729042E0,2.817729369E0,-7.539072418E-1,1.942683460E0,3.504567584E0
1.234807042E0,3.006791486E0,-9.913825500E-1,2.080568553E0,3.788456137E0
1.244885042E0,3.135692770E0,-1.067091129E0,2.090215728E0,3.916663684E0
1.254962042E0,2.962305869E0,-1.036064925E0,1.901870041E0,3.669577120E0
1.265040042E0,2.562905957E0,-9.195389807E-1,1.585656127E0,3.150927519E0
1.275118042E0,2.154135881E0,-7.549439532E-1,1.239512655E0,2.597428226E0
1.285196042E0,1.863252105E0,-6.688624138E-1,8.179658282E-1,2.141997533E0
1.295274042E0,1.958899689E0,-7.069605321E-1,6.868934727E-1,2.192921300E0
1.305352042E0,2.072766613E0,-8.197559533E-1,4.433942167E-1,2.272654766E0
1.315430042E0,2.295185925E0,-5.768336713E-1,1.503512102E-1,2.371333170E0
1.325507042E0,2.403990914E0,-1.908253446E-1,-5.127745003E-2,2.412097843E0
1.335585042E0,2.452768972E0,1.812549144E-1,-1.150732040E-1,2.462147602E0
1.345663042E0,2.349337574E0,6.946410334E-1,-2.806400388E-2,2.450040977E0
1.355741042E0,1.766701126E0,1.273893405E0,1.441373742E-1,2.182845130E0
1.365819042E0,1.085566576E0,1.703253574E0,2.189092290E-1,2.031612359E0
1.375897042E0,7.431460261E-1,1.916043107E0,2.337767981E-1,2.068366214E0
1.385975042E0,7.616021776E-1,1.790939004E0,2.003229770E-1,1.956432899E0
1.396053042E0,1.114387502E0,1.283952663E0,3.367123519E-1,1.733138527E0
1.406130042E0,1.437774196E0,5.653646502E-1,5.068582875E-1,1.625957302E0
1.416208042E0,1.606485078E0,-9.321923554E-2,6.441329308E-1,1.733318022E0
1.426286042E0,1.369954680E0,-4.632287031E-1,6.577326773E-1,1.588700391E0
1.436364042E0,8.969909477E-1,-5.922238353E-1,7.290115517E-1,1.298760822E0
1.446442042E0,4.919806319E-1,-8.384462857E-1,7.969468421E-1,1.257044703E0
1.456520042E0,-3.851502478E-2,-1.032527360E0,5.788790274E-1,1.184355135E0
1.466598042E0,-5.215377223E-1,-1.012785991E0,3.085949922E-1,1.180240623E0
1.476675042E0,-9.423606634E-1,-9.955752960E-1,2.414417669E-2,1.371056794E0
1.486753042E0,-1.376632785E0,-9.577484885E-1,-3.059909347E-1,1.704708317E0
1.496831042E0,-1.817989393E0,-8.631675826E-1,-5.669524616E-1,2.090832084E0
1.506909042E0,-2.268554782E0,-8.371939583E-1,-7.563674578E-1,2.533638935E0
1.516987042E0,-2.681559411E0,-9.577995054E-1,-9.307915087E-1,2.995749255E0
1.527065042E0,-3.002924137E0,-1.149839755E0,-1.074707712E0,3.390380731E0
1.537143042E0,-3.302184049E0,-1.270600838E0,-1.248073124E0,3.751870535E0
1.547220042E0,-3.544944071E0,-1.192240840E0,-1.324202849E0,3.967565988E0
1.557298042E0,-3.723690530E0,-1.263681536E0,-1.284172080E0,4.136648416E0
1.567376042E0,-3.847850892E0,-1.270314325E0,-1.128797965E0,4.206404619E0
1.577454042E0,-3.953183804E0,-1.275124098E0,-1.000307886E0,4.272495702E0
1.587532042E0,-3.986999422E0,-1.450677539E0,-9.887349308E-1,4.356400633E0
1.597610042E0,-3.958864959E0,-1.586379866E0,-9.569956595E-1,4.370932799E0
1.607688042E0,-3.950110508E0,-1.573853376E0,-9.258827712E-1,4.351740615E0
1.617765042E0,-3.845804951E0,-1.506443165E0,-9.531838596E-1,4.238885019E0
1.627843042E0,-3.670229437E0,-1.449626940E0,-9.465409841E-1,4.058071244E0
1.637921042E0,-3.437792675E0,-1.343595286E0,-8.569188094E-1,3.789192079E0
1.647999042E0,-3.071616642E0,-1.268868893E0,-7.609388110E-1,3.409381899E0
1.658077042E0,-2.687347569E0,-1.258130482E0,-6.732583505E-1,3.042697171E0
1.668155042E0,-2.265997794E0,-1.120586574E0,-4.692988439E-1,2.571128483E0
1.678233042E0,-1.839049895E0,-8.831434254E-1,-2.822774054E-1,2.059545425E0
1.688311042E0,-1.405454296E0,-7.444281743E-1,-1.786894485E-1,1.600439003E0
1.698388042E0,-8.550219727E-1,-5.382423404E-1,-1.801714253E-1,1.026269523E0
1.708465042E0,-3.647621763E-1,-2.222754711E-1,-2.877426517E-1,5.150278283E-1
1.718543042E0,1.428007007E-2,-8.080837414E-2,-3.551721579E-1,3.645287032E-1
1.728621042E0,5.321948576E-1,-5.968750030E-2,-3.189205903E-1,6.233011367E-1
1.738699042E0,1.160648333E0,5.229018778E-2,-6.325517893E-1,1.322860758E0
1.748777042E0,1.808806341E0,1.689301533E-1,-8.413193151E-1,2.002032959E0
1.758855042E0,2.411460732E0,1.131554635E-1,-1.145420430E0,2.672065677E0
1.768932042E0,2.805920917E0,1.262983963E-1,-1.276464134E0,3.085207313E0
1.779010042E0,2.894629610E0,8.355948910E-2,-1.219027227E0,3.141956420E0
1.789088042E0,2.831117154E0,5.393749461E-2,-1.204302768E0,3.077089331E0
1.799166042E0,2.736516806E0,8.730930850E-2,-1.284744961E0,3.024353941E0
1.809244042E0,2.701976134E0,7.728162602E-2,-9.941851205E-1,2.880113111E0
1.819322042E0,2.943181381E0,-3.166594720E-1,-7.811602369E-1,3.061503091E0
1.829400042E0,3.391514887E0,-7.793027227E-1,1.036418974E-2,3.479912840E0
1.839478042E0,3.731367924E0,-1.111438605E0,1.178708044E-1,3.895163140E0
1.849555042E0,3.899213419E0,-1.182740284E0,1.538019446E-1,4.077547658E0
1.859633042E0,3.835170035E0,-1.144351997E0,2.243798840E-1,4.008543005E0
1.869711042E0,3.703036995E0,-9.859341145E-1,1.621877289E-1,3.835473103E0
1.879789042E0,3.408908014E0,-6.637243192E-1,2.752518296E-2,3.473030587E0
1.889867042E0,2.851582409E0,-2.517148863E-1,-1.044698632E-1,2.864576159E0
1.899945042E0,2.253433882E0,1.630615953E-1,-7.796268046E-2,2.260670592E0
1.910023042E0,1.762696953E0,4.104061264E-1,5.178294182E-2,1.810584218E0
1.920100042E0,1.425332490E0,4.970060214E-1,1.148720598E-1,1.513863694E0
1.930178042E0,1.200750293E0,4.167293054E-1,2.704039031E-1,1.299454828E0
1.940256042E0,1.146949477E0,3.529043153E-2,4.063086900E-1,1.217302455E0
1.950334042E0,1.158747988E0,-4.498685463E-1,5.698418632E-1,1.367405704E0
1.960412042E0,1.164032702E0,-7.688769910E-1,6.443386066E-1,1.536657476E0
1.970490042E0,1.111676148E0,-8.165880780E-1,7.523325866E-1,1.571191990E0
1.980568042E0,8.617831081E-1,-5.422912449E-1,8.538377653E-1,1.328829880E0
1.990645042E0,4.021387482E-1,-2.667571409E-1,9.537893388E-1,1.068919570E0
2.000723042E0,5.717816770E-2,1.104860634E-2,9.657156122E-1,9.674699262E-1
2.010801042E0,-2.350761956E-1,3.297670291E-1,8.441226165E-1,9.362425449E-1
2.020879042E0,-6.294966191E-1,4.058371121E-1,6.642548078E-1,1.001101496E0
2.030957042E0,-9.005922478E-1,5.709883560E-1,4.601378649E-1,1.161387513E0
2.041035042E0,-1.291339450E0,7.206963725E-1,1.929750735E-1,1.491375277E0
2.051113042E0,-1.699031299E0,9.050105502E-1,-5.786755443E-2,1.925902413E0
2.061191042E0,-2.098225390E0,9.779817550E-1,-3.988760018E-1,2.349063678E0
2.071268042E0,-2.381834645E0,1.021142393E0,-6.693816465E-1,2.676553726E0
2.081346042E0,-2.564789929E0,9.810598755E-1,-8.661240810E-1,2.879374374E0
2.091424042E0,-2.688094259E0,9.093255030E-1,-9.973116267E-1,3.007881995E0
2.101502042E0,-2.726666586E0,8.424836420E-1,-9.905475676E-1,3.020873027E0
2.111580042E0,-2.705917742E0,8.051865922E-1,-9.824341173E-1,2.989229511E0
2.121658042E0,-2.623262086E0,7.472136417E-1,-8.571265317E-1,2.859107918E0
2.131736042E0,-2.533793254E0,6.587438071E-1,-6.609014297E-1,2.700155988E0
2.141813042E0,-2.420480647E0,6.729392387E-1,-4.998328578E-1,2.561524286E0
2.151891042E0,-2.259338400E0,7.564272456E-1,-3.930686934E-1,2.414807484E0
2.161969042E0,-2.107921243E0,8.608443376E-1,-3.559714723E-1,2.304582528E0
2.172047042E0,-1.933055581E0,8.849614710E-1,-3.068624622E-1,2.148028225E0
2.182125042E0,-1.774121243E0,8.919088402E-1,-2.912486422E-1,2.006946271E0
2.192203042E0,-1.596613809E0,9.459284882E-1,-2.640240061E-1,1.874477270E0
2.202281042E0,-1.439240677E0,9.648728822E-1,-2.555049053E-1,1.751478279E0
2.212359042E0,-1.227524693E0,8.993146312E-1,-1.919069333E-1,1.533757461E0
2.222436042E0,-9.929086733E-1,8.180969520E-1,-1.558459850E-1,1.295931413E0
2.232514042E0,-7.927614051E-1,7.769844478E-1,-1.822343230E-1,1.124893251E0
2.242592042E0,-5.682675004E-1,6.856833914E-1,-8.659799471E-2,8.947563232E-1
2.252670042E0,-3.670513612E-1,5.977105701E-1,1.605981633E-2,7.015999894E-1
2.262748042E0,-1.356115490E-1,5.663221318E-1,1.969886023E-1,6.147485328E-1
2.272826042E0,8.966295898E-2,5.255088589E-1,4.844052717E-1,7.203106790E-1
2.282904042E0,5.108425802E-1,4.046504197E-1,7.006687818E-1,9.568901952E-1
2.292981042E0,1.148270363E0,2.490552802E-1,9.099160717E-1,1.486102492E0
2.303059042E0,1.687519886E0,8.326449707E-2,1.140320488E0,2.038378561E0
2.313137042E0,2.109025782E0,-7.739082277E-2,1.413201272E0,2.539904904E0
2.323215042E0,2.390278024E0,-1.789902878E-1,1.610991966E0,2.888037685E0
2.333293042E0,2.415694701E0,-2.531195337E-1,1.717451198E0,2.974775455E0
2.343371042E0,2.360797532E0,-1.549322113E-1,1.781169477E0,2.961407382E0
2.353449042E0,2.198525019E0,-9.506754041E-2,1.724615207E0,2.795862605E0
2.363527042E0,2.223504324E0,-2.739952630E-1,1.675649453E0,2.797650081E0
2.373604042E0,2.737527789E0,-7.618726113E-1,1.691540285E0,3.306934655E0
2.383682042E0,3.329882310E0,-1.425369912E0,1.795878732E0,4.042892035E0
2.393760042E0,3.630907497E0,-1.882566920E0,1.797315247E0,4.467425383E0
2.403838042E0,3.504731600E0,-1.947575094E0,1.701103991E0,4.355450278E0
2.413916042E0,2.950227860E0,-1.724042472E0,1.591095791E0,3.769317271E0
2.423994042E0,2.165570111E0,-1.173988464E0,1.454394760E0,2.860630514E0
2.434072042E0,1.258317300E0,-4.626033434E-1,1.297250986E0,1.865535955E0
2.444150042E0,3.315669483E-1,2.110695747E-1,1.064504759E0,1.134749923E0
2.454227042E0,-4.020954788E-1,7.198097885E-1,9.130696213E-1,1.230245113E0
2.464305042E0,-6.816344869E-1,1.040107106E0,6.645973085E-1,1.410013456E0
2.474383042E0,-6.653628552E-1,1.048077153E0,4.545518737E-1,1.322040413E0
2.484461042E0,-4.381207591E-1,7.662197238E-1,3.996291232E-1,9.688890034E-1
2.494539042E0,5.178937376E-2,3.970218498E-1,3.859232497E-1,5.560982315E-1
2.504617042E0,4.920507985E-1,1.200032839E-1,3.846001710E-1,6.359497370E-1
2.514695042E0,6.344918954E-1,-7.728089511E-2,5.142351347E-1,8.203597235E-1
2.524772042E0,6.618241203E-1,-3.799321926E-1,3.207098383E-1,8.277768042E-1
2.534850042E0,6.971553361E-1,-6.102949476E-1,3.182949382E-1,9.796923770E-1
2.544928042E0,5.888333273E-1,-7.597708297E-1,3.822165535E-1,1.034439894E0
2.555006042E0,2.700489771E-1,-7.193130675E-1,1.856770174E-1,7.904515759E-1
2.565084042E0,-1.564399159E-1,-4.949026318E-1,2.235142037E-2,5.195205946E-1
2.575162042E0,-5.260301381E-1,-2.875836074E-1,4.549133778E-3,5.995270904E-1
2.585240042E0,-9.353352338E-1,-1.547895393E-1,-2.146873932E-1,9.720609435E-1
2.595318042E0,-1.336999773E0,-6.407408148E-2,-4.383265811E-1,1.408475797E0
2.605395042E0,-1.672369750E0,-6.034180373E-2,-5.405331333E-1,1.758589714E0
2.615473042E0,-1.987307217E0,-1.163101825E-1,-6.267070587E-1,2.087026538E0
2.625551042E0,-2.315150658E0,-1.837247783E-1,-7.494130719E-1,2.440347786E0
2.635629042E0,-2.561917777E0,-2.173053378E-1,-8.504266459E-1,2.708111849E0
2.645707042E0,-2.694081223E0,-2.388365400E-1,-8.913296735E-1,2.847733329E0
2.655785042E0,-2.811917236E0,-2.676001632E-1,-8.622785135E-1,2.953305373E0
2.665863042E0,-2.888370166E0,-3.245020500E-1,-8.728580269E-1,3.034775928E0
2.675940042E0,-2.914493186E0,-3.910924807E-1,-8.462491027E-1,3.059961014E0
2.686018042E0,-2.863480908E0,-4.440121213E-1,-7.803853346E-1,3.000945008E0
2.696096042E0,-2.809587706E0,-4.325517248E-1,-7.809389198E-1,2.948007745E0
2.706178042E0,-2.734151022E0,-2.989223818E-1,-7.822741315E-1,2.859526048E0
2.716256042E0,-2.635621346E0,-1.889014645E-1,-8.206736737E-1,2.766891563E0
2.726334042E0,-2.477428434E0,-1.267394225E-1,-8.976636699E-1,2.638089194E0
2.736412042E0,-2.251202585E0,-1.072509451E-1,-1.005660866E0,2.467948464E0
2.746490042E0,-1.985592229E0,-6.068547383E-2,-1.134732597E0,2.287766879E0
2.756567042E0,-1.702081207E0,3.560223430E-3,-1.230723120E0,2.100421983E0
2.766645042E0,-1.418088959E0,5.615914419E-2,-1.320041678E0,1.938205401E0
2.776723042E0,-1.087092699E0,1.541108237E-1,-1.377300537E0,1.761385095E0
2.786801042E0,-7.503158820E-1,2.812093384E-1,-1.453375298E0,1.659624166E0
2.796879042E0,-4.519827533E-1,4.794572847E-1,-1.429052050E0,1.573644642E0
2.806957042E0,-1.600944257E-1,6.986450605E-1,-1.277990257E0,1.465262517E0
2.817035042E0,2.374823248E-1,9.195179307E-1,-1.139230860E0,1.483158127E0
2.827113042E0,7.356235832E-1,1.018018445E0,-1.053101227E0,1.639062477E0
2.837190042E0,1.367315832E0,9.159239396E-1,-8.878137428E-1,1.869941841E0
2.847268042E0,1.984915706E0,7.432163389E-1,-7.610230109E-1,2.251980664E0
2.857346042E0,2.498948527E0,5.246107265E-1,-5.794500080E-1,2.618343458E0
2.867424042E0,2.869427526E0,3.208044901E-1,-3.463202043E-1,2.908000607E0
2.877502042E0,3.004769518E0,2.176023763E-1,-1.036711335E-1,3.014421728E0
2.887580042E0,2.946403781E0,2.465251900E-1,1.054226670E-1,2.958578011E0
2.897658042E0,2.797093375E0,2.897486852E-1,2.555513906E-1,2.823648732E0
2.907735042E0,2.719341779E0,3.592022051E-1,3.503710091E-1,2.765249678E0
2.917813042E0,2.892709969E0,1.327301873E-1,4.297443303E-1,2.927467926E0
2.927891042E0,3.096011810E0,-1.092575634E-1,4.686733380E-1,3.133190234E0
2.937969042E0,3.079979914E0,-1.547082630E-1,4.258690882E-1,3.113129519E0
2.948047042E0,2.847026843E0,-5.679700233E-2,2.750983402E-1,2.860850720E0
2.958125042E0,2.543234169E0,1.508235191E-1,1.349429199E-1,2.551273675E0
2.968203042E0,2.215528722E0,2.788543723E-1,-1.847573966E-2,2.233085003E0
2.978281042E0,1.853905331E0,4.137244944E-1,-1.577485228E-1,1.906047620E0
2.988358042E0,1.507092353E0,6.285696892E-1,-1.803158516E-1,1.642845403E0
2.998436042E0,1.161143593E0,7.448784830E-1,-2.430091131E-1,1.400768299E0
3.008514042E0,9.635404480E-1,5.600170791E-1,-2.466612840E-1,1.141433797E0
3.018592042E0,8.250701952E-1,1.289613645E-1,-7.461047173E-2,8.384143266E-1
3.028670042E0,7.666261053E-1,-3.120196333E-1,1.437733850E-1,8.400848904E-1
3.038748042E0,9.190665257E-1,-7.508453473E-1,4.533352143E-1,1.270419156E0
3.048826042E0,1.047832155E0,-1.262336238E0,7.150410917E-1,1.789616932E0
3.058904042E0,1.054048914E0,-1.675823116E0,8.617798921E-1,2.159181977E0
3.068981042E0,9.642643332E-1,-1.909467621E0,9.951772468E-1,2.359290158E0
3.079059042E0,7.840519774E-1,-1.941541499E0,1.177656422E0,2.402331272E0
3.089137042E0,5.322983533E-1,-1.875281582E0,1.319764812E0,2.354103164E0
3.099215042E0,1.818261874E-1,-1.770577392E0,1.368665369E0,2.245272802E0
3.109293042E0,-1.350700969E-1,-1.573814492E0,1.367181200E0,2.089095598E0
3.119371042E0,-5.060969800E-1,-1.303685554E0,1.231642741E0,1.863511207E0
3.129449042E0,-9.069738990E-1,-1.024149616E0,1.039609215E0,1.718217509E0
3.139527042E0,-1.249235989E0,-7.093918043E-1,8.098493081E-1,1.649146201E0
3.149604042E0,-1.645263228E0,-4.053061849E-1,4.710838526E-1,1.758716631E0
3.159682042E0,-2.038722954E0,-1.394540468E-1,1.746800128E-1,2.050939253E0
3.169760042E0,-2.387835642E0,1.410259245E-1,-9.509180635E-2,2.393885924E0
3.179838042E0,-2.678553357E0,3.166050929E-1,-3.430808468E-1,2.718932022E0
3.189916042E0,-2.937172197E0,3.965208896E-1,-5.040931392E-1,3.006379754E0
3.199994042E0,-3.150704327E0,4.952160425E-1,-6.486073664E-1,3.254668677E0
3.210072042E0,-3.419893763E0,5.896444823E-1,-6.438433474E-1,3.529573377E0
3.220149042E0,-3.623472762E0,7.332997535E-1,-6.994562155E-1,3.762515433E0
3.230227042E0,-3.742758885E0,8.558877991E-1,-7.192157114E-1,3.906156581E0
3.240305042E0,-3.777610044E0,8.936665133E-1,-6.787804610E-1,3.940776624E0
3.250383042E0,-3.695370710E0,8.437472253E-1,-6.104987231E-1,3.839320612E0
3.260461042E0,-3.541177295E0,7.483525331E-1,-4.675480413E-1,3.649461511E0
3.270539042E0,-3.332655644E0,6.184434812E-1,-3.696095181E-1,3.409644729E0
3.280617042E0,-3.033892745E0,4.694292368E-1,-2.978483945E-1,3.084409614E0
3.290695042E0,-2.686040132E0,3.267055732E-1,-2.410587743E-1,2.716552494E0
3.300772042E0,-2.244937878E0,2.931840706E-1,-1.566527545E-1,2.269414695E0
3.310850042E0,-1.814804415E0,3.066497697E-1,2.402182370E-2,1.840686338E0
3.320928042E0,-1.327027931E0,2.177158123E-1,1.272728348E-1,1.350778176E0
3.331006042E0,-7.987167943E-1,1.190374701E-1,2.944422452E-1,8.595432930E-1
3.341084042E0,-2.967707527E-1,6.758109525E-2,5.007285051E-1,5.859770643E-1
3.351162042E0,9.715616584E-2,1.639459866E-1,6.692319578E-1,6.958369209E-1
3.361240042E0,4.269765508E-1,3.297610357E-1,7.949253134E-1,9.607068073E-1
3.371318042E0,8.959717780E-1,4.211838605E-1,9.250843339E-1,1.354969482E0
3.381396042E0,1.453005608E0,3.759734814E-1,1.130117097E0,1.878761828E0
3.391473042E0,1.997953243E0,2.562530565E-1,1.250426921E0,2.370875424E0
3.401551042E0,2.533005635E0,1.577765894E-1,1.277931054E0,2.841499389E0
3.411629042E0,3.027048579E0,1.019769028E-2,1.539029698E0,3.395841502E0
3.421707042E0,3.318286112E0,-1.156243041E-1,1.786290907E0,3.770308595E0
3.431785042E0,3.344666410E0,-9.862688676E-2,1.882691027E0,3.839407007E0
3.441863042E0,3.279454168E0,-1.291923295E-1,1.961108621E0,3.823278348E0
3.451941042E0,3.125969435E0,-1.628961191E-1,1.906092169E0,3.664888458E0
3.462018042E0,2.674656188E0,-8.322312802E-2,1.544021466E0,3.089452071E0
3.472096042E0,2.533157662E0,-2.182066861E-1,1.236985926E0,2.827478750E0
3.482174042E0,2.708074195E0,-6.017077267E-1,1.093088873E0,2.981704432E0
3.492252042E0,2.859946266E0,-8.491022515E-1,8.084168865E-1,3.090923024E0
3.502330042E0,2.918173424E0,-8.382580054E-1,4.678678840E-1,3.072020992E0
3.512408042E0,2.841000118E0,-6.399704441E-1,1.798129910E-1,2.917734832E0
3.522486042E0,2.329518437E0,-2.515513104E-1,3.742042601E-2,2.343359660E0
3.532564042E0,1.648266943E0,4.411829460E-1,-1.196965975E-1,1.710483435E0
3.542641042E0,1.067270054E0,9.407842541E-1,-4.647542417E-2,1.423481768E0
3.552719042E0,6.553109068E-1,1.128611439E0,3.058035314E-2,1.305423810E0
3.562797042E0,4.774163872E-1,1.184262899E0,3.792723343E-2,1.277436298E0
3.572875042E0,6.065591615E-1,1.048368637E0,1.027940512E-1,1.215548202E0
3.582953042E0,9.225023496E-1,7.540139535E-1,1.871727352E-1,1.206060222E0
3.593031042E0,1.224266624E0,3.060692874E-1,2.203874052E-1,1.281045583E0
3.603109042E0,1.323534220E0,-1.984963068E-1,2.312645419E-1,1.358170425E0
3.613187042E0,1.217187400E0,-6.282058463E-1,2.949739033E-1,1.401141448E0
3.623264042E0,1.021617917E0,-1.031307338E0,5.071727215E-1,1.537700285E0
3.633342042E0,8.481456470E-1,-1.389651318E0,5.946238250E-1,1.733222236E0
3.643420042E0,6.042255378E-1,-1.488558433E0,6.022409928E-1,1.715689052E0
3.653498042E0,1.815285641E-1,-1.470447267E0,5.734504724E-1,1.588714332E0
3.663576042E0,-3.357646644E-1,-1.357994054E0,4.303129721E-1,1.463576105E0
3.673654042E0,-9.047823626E-1,-1.250190547E0,1.264589024E-1,1.548418349E0
3.683732042E0,-1.438272963E0,-1.270049154E0,-3.253648067E-1,1.946154214E0
3.693810042E0,-1.927638720E0,-1.168055732E0,-7.448937589E-1,2.373818009E0
3.703887042E0,-2.289595987E0,-1.026009761E0,-1.114009772E0,2.745170958E0
3.713961417E0,-2.640448807E0,-1.031118181E0,-1.557470793E0,3.234329896E0
3.724039417E0,-2.910630516E0,-1.055478559E0,-1.961676240E0,3.665239236E0
3.734117417E0,-3.124136918E0,-9.173196700E-1,-2.113409439E0,3.881778757E0
3.744195417E0,-3.361483587E0,-6.469575745E-1,-2.231719370E0,4.086403964E0
3.754273417E0,-3.532343321E0,-2.677726561E-1,-2.326160966E0,4.237944829E0
3.764351417E0,-3.693433528E0,-6.642071530E-2,-2.439572683E0,4.426892569E0
3.774429417E0,-3.679379160E0,1.099250230E-1,-2.499601661E0,4.449485698E0
3.784506417E0,-3.606007129E0,3.178081575E-1,-2.482149476E0,4.389231762E0
3.794584417E0,-3.474169958E0,5.233241929E-1,-2.429142859E0,4.271353431E0
3.804662417E0,-3.255249619E0,6.679160419E-1,-2.274837323E0,4.027113950E0
3.814740417E0,-3.037004634E0,7.444195497E-1,-2.110771176E0,3.772653253E0
3.824818417E0,-2.750806816E0,8.033597758E-1,-1.851641874E0,3.411876712E0
3.834896417E0,-2.374530888E0,7.943020003E-1,-1.576395891E0,2.958772822E0
3.844974417E0,-1.882252632E0,6.886806741E-1,-1.336596607E0,2.409075867E0
3.855052417E0,-1.366315373E0,5.605852823E-1,-1.087927536E0,1.834300924E0
3.865130417E0,-8.816636413E-1,4.760070620E-1,-8.478698047E-1,1.312553506E0
3.875207417E0,-4.658798307E-1,4.271417347E-1,-5.653093940E-1,8.479792386E-1
3.885285417E0,-9.245208085E-2,4.494219652E-1,-2.516711783E-1,5.233219583E-1
3.895363417E0,2.182707131E-1,4.779331349E-1,5.009236559E-2,5.277986649E-1
3.905441417E0,4.606027186E-1,5.614651421E-1,2.864542177E-1,7.806753416E-1
3.915519417E0,7.887852985E-1,6.482061012E-1,4.247930543E-1,1.105804022E0
3.925597417E0,1.254989650E0,5.729936586E-1,4.862152773E-1,1.462780246E0
3.935675417E0,1.692795244E0,4.046527585E-1,4.755651587E-1,1.804289836E0
3.945752417E0,2.085454486E0,3.120936736E-1,4.996059859E-1,2.167055379E0
3.955830417E0,2.370029701E0,2.107260507E-1,5.359768367E-1,2.438999266E0
3.965908417E0,2.498226981E0,1.203393526E-1,6.191445623E-1,2.576617860E0
3.975986417E0,2.465969646E0,1.300926545E-1,7.510713422E-1,2.581092512E0
3.986064417E0,2.242119520E0,2.800661346E-1,8.146659520E-1,2.401919564E0
3.996142417E0,1.922773252E0,4.858822784E-1,9.779167047E-1,2.211212258E0
4.006220417E0,1.613697619E0,6.514651930E-1,1.173060510E0,2.098689559E0
4.016298417E0,1.548163195E0,6.842305045E-1,1.207839457E0,2.079388568E0
4.026375417E0,1.841449007E0,5.323802143E-1,1.103354976E0,2.211731300E0
4.036453417E0,2.237923558E0,4.130949685E-1,8.188070963E-1,2.418552121E0
4.046531417E0,2.725341023E0,1.228418148E-1,5.801127899E-1,2.789104632E0
4.056609417E0,3.265127320E0,-3.695221022E-1,5.713910830E-1,3.335279714E0
4.066687417E0,3.444891195E0,-6.370073676E-1,2.812867409E-1,3.514566255E0
4.076765417E0,3.566107484E0,-7.973251569E-1,-4.889163986E-2,3.654482232E0
4.086843417E0,3.301981736E0,-6.666942662E-1,-2.837911034E-1,3.380547592E0
4.096921417E0,2.720372643E0,-4.333286735E-1,-3.235822830E-1,2.773608940E0
4.106999417E0,2.127186649E0,-3.763805938E-1,-3.537781817E-1,2.189005343E0
4.117076417E0,1.766719252E0,-5.370261195E-1,-1.226295608E-1,1.850603139E0
4.127154417E0,1.442411622E0,-8.105644226E-1,3.005878150E-2,1.654832167E0
4.137232417E0,1.338578521E0,-1.160104250E0,1.767201063E-1,1.780130423E0
4.147310417E0,1.344305869E0,-1.560940531E0,3.651650494E-1,2.092137453E0
4.157388417E0,1.238109908E0,-1.792131836E0,3.634195094E-1,2.208331135E0
4.167466417E0,1.143170421E0,-1.731085736E0,5.221902716E-1,2.139200579E0
4.177544417E0,1.054603230E0,-1.581223353E0,7.153775990E-1,2.030817661E0
4.187622417E0,9.816083443E-1,-1.257727608E0,7.717348176E-1,1.772289002E0
4.197700417E0,8.638214475E-1,-8.399879041E-1,8.949759972E-1,1.500916123E0
4.207777417E0,6.161632133E-1,-4.148134652E-1,8.220439687E-1,1.107918590E0
4.217855417E0,4.135741478E-1,7.417514652E-2,6.452886330E-1,7.700278878E-1
4.227933417E0,3.924651146E-2,5.747523549E-1,2.885950296E-1,6.443350442E-1
4.238011417E0,-3.826757061E-1,1.095545727E0,-5.747140557E-2,1.161879554E0
4.248089417E0,-8.125717717E-1,1.427897079E0,-3.419548193E-1,1.678122776E0
4.258167417E0,-1.228397098E0,1.677057755E0,-6.848086479E-1,2.188708530E0
4.268245417E0,-1.563085290E0,1.837445711E0,-8.570951030E-1,2.560088744E0
4.278322417E0,-1.716978743E0,1.858363540E0,-1.033024373E0,2.732886827E0
4.288400417E0,-1.776244951E0,1.813958908E0,-9.492709029E-1,2.710462745E0
4.298478417E0,-1.834303710E0,1.814401250E0,-6.505835791E-1,2.660823367E0
4.308556417E0,-2.148734808E0,1.795948753E0,-7.932011157E-2,2.801568289E0
4.318634417E0,-2.574080570E0,1.952511314E0,5.922404999E-1,3.284652192E0
4.328712417E0,-2.641852723E0,2.027242238E0,1.169494001E0,3.529421075E0
4.338790417E0,-2.921221578E0,1.732909921E0,1.575219139E0,3.744038947E0
4.348868417E0,-2.818389519E0,1.741599906E0,1.657996709E0,3.704786472E0
4.358945417E0,-2.739922224E0,1.820085036E0,1.526832553E0,3.626444674E0
4.369023417E0,-2.769876341E0,1.729756517E0,1.257059418E0,3.499210044E0
4.379101417E0,-2.772830354E0,1.613518109E0,9.766072208E-1,3.353474396E0
4.389179417E0,-2.772366670E0,1.496195335E0,8.505529457E-1,3.263136183E0
4.399257417E0,-2.727555948E0,1.350062306E0,6.208485872E-1,3.106071900E0
4.409335417E0,-2.552037737E0,1.212844673E0,4.646237026E-1,2.863523004E0
4.419413417E0,-2.254857094E0,1.027102167E0,5.380764256E-1,2.535516834E0
4.429491417E0,-1.921995572E0,8.807333493E-1,4.777195653E-1,2.167481072E0
4.439569417E0,-1.547498367E0,8.201836771E-1,5.311363654E-1,1.830179854E0
4.449646417E0,-1.166564546E0,7.657164247E-1,5.470994103E-1,1.498836965E0
4.459724417E0,-8.132149655E-1,6.343527317E-1,5.143541256E-1,1.152511230E0
4.469802417E0,-2.945534885E-1,5.083649687E-1,4.058938301E-1,7.141053846E-1
4.479880417E0,3.890538490E-1,3.868029633E-1,2.793492660E-1,6.156423006E-1
4.489958417E0,1.089388316E0,1.644191726E-1,4.624489769E-2,1.102696313E0
4.500036417E0,1.757766581E0,-2.219639607E-1,-1.938632655E-1,1.782300288E0
4.510114417E0,2.312197815E0,-7.434551977E-1,-4.768123698E-1,2.475143309E0
4.520192417E0,2.782530885E0,-1.415386669E0,-9.801822084E-1,3.272087210E0
4.530269417E0,3.008714635E0,-2.019464418E0,-1.224899878E0,3.825046405E0
4.540347417E0,2.405298352E0,-2.365212034E0,-1.561198101E0,3.717126260E0
4.550425417E0,1.403925834E0,-2.715612425E0,-1.720249676E0,3.507822335E0
4.560503417E0,8.961471945E-1,-3.208113459E0,-1.471614664E0,3.641527356E0
4.570581417E0,1.335697013E0,-3.900427593E0,-9.751430780E-1,4.236546464E0
4.580659417E0,2.284535222E0,-4.956041515E0,-3.851853311E-1,5.470814968E0
4.590737417E0,2.937606061E0,-5.631963272E0,-2.783596247E-2,6.352111028E0
4.600815417E0,2.996047812E0,-5.385962723E0,-4.600940108E-2,6.163360594E0
4.610893417E0,2.733929998E0,-4.824523309E0,-1.376077884E-1,5.547011294E0
4.620970417E0,2.021058515E0,-3.707325928E0,-3.226019973E-1,4.234739083E0
4.631048417E0,1.207643575E0,-2.560147825E0,-4.354070663E-1,2.863972626E0
4.641126417E0,7.161728203E-1,-1.786517632E0,-4.391960621E-1,1.974193998E0
4.651204417E0,5.181480914E-1,-1.384235043E0,-4.638911927E-1,1.549122053E0
4.661282417E0,5.073412675E-1,-1.024640928E0,-6.649254835E-1,1.322652672E0
4.671360417E0,5.720564961E-1,-6.628982538E-1,-5.957891750E-1,1.059078595E0
4.681438417E0,6.204977542E-1,-5.515698990E-1,-5.169295317E-1,9.779892419E-1
4.691516417E0,6.213625574E-1,-5.602093063E-1,-4.202064984E-1,9.362154645E-1
4.701593417E0,7.849273056E-1,-5.167880291E-1,-4.301270306E-2,9.407607744E-1
4.711671542E0,8.329475641E-1,-5.272510368E-1,2.960832663E-1,1.029301025E0
4.721749542E0,8.787148905E-1,-4.964650078E-1,6.311535008E-1,1.190366374E0
4.731827542E0,8.733395451E-1,-4.539737302E-1,7.685707431E-1,1.248805468E0
4.741905542E0,6.217777097E-1,-3.824758776E-1,6.837171920E-1,1.000182241E0
4.751983542E0,1.482467973E-1,-3.151810035E-1,5.687995970E-1,6.669701339E-1
4.762061542E0,-4.533246893E-1,-1.917081280E-1,2.945651098E-1,5.736060357E-1
4.772139542E0,-1.003859923E0,5.986087024E-2,-7.841116190E-3,1.005673681E0
4.782216542E0,-1.330605842E0,2.587220433E-1,-3.337493484E-1,1.396007748E0
4.792294542E0,-1.770193083E0,4.240045573E-1,-5.204888780E-1,1.893217391E0
4.802372542E0,-2.271393020E0,6.908776192E-1,-7.533032244E-1,2.490783789E0
4.812450542E0,-2.666044409E0,9.670771363E-1,-9.360323681E-1,2.986500891E0
4.822528542E0,-2.864267943E0,1.220698946E0,-1.105383375E0,3.303938433E0
4.832606542E0,-2.980028195E0,1.405890937E0,-1.251617999E0,3.524719135E0
4.842684542E0,-3.127817155E0,1.488254670E0,-1.247125729E0,3.681503050E0
4.852762542E0,-3.244667913E0,1.541415216E0,-1.138399239E0,3.768260018E0
4.862840542E0,-3.221628714E0,1.597606520E0,-9.646503957E-1,3.723142295E0
4.872917542E0,-3.140851184E0,1.640634426E0,-8.522809441E-1,3.644586435E0
4.882995542E0,-2.991945405E0,1.614333211E0,-7.531892037E-1,3.482111859E0
4.893073542E0,-2.881237147E0,1.571227684E0,-7.243092209E-1,3.360789756E0
4.903151542E0,-2.759020400E0,1.536547701E0,-6.407047082E-1,3.222371011E0
4.913229542E0,-2.646771401E0,1.454715626E0,-6.069499017E-1,3.080581858E0
4.923307542E0,-2.431568137E0,1.290630329E0,-6.229899837E-1,2.822475292E0
4.933385542E0,-2.098699014E0,1.040261472E0,-6.440105778E-1,2.429286131E0
4.943463542E0,-1.710967221E0,8.434471169E-1,-6.663755929E-1,2.020610873E0
4.953540542E0,-1.330378971E0,6.154279259E-1,-6.141939441E-1,1.589306118E0
4.963618542E0,-1.035845363E0,4.170038322E-1,-3.980720097E-1,1.185465789E0
4.973696542E0,-6.864175093E-1,3.158790149E-1,-2.471888490E-1,7.950162742E-1
4.983774542E0,-2.744186014E-1,2.097668150E-1,-1.432380724E-1,3.739315858E-1
4.993852542E0,4.725193441E-2,9.947254032E-2,-8.883557796E-2,1.414895455E-1
5.003930542E0,4.383224881E-1,-2.818226382E-2,1.342396460E-2,4.394326414E-1
5.014008542E0,9.373156857E-1,-1.067846297E-1,6.499465249E-2,9.456151208E-1
5.024086542E0,1.454830524E0,-1.885922930E-1,5.447733879E-2,1.468014539E0
5.034164542E0,1.879357091E0,-3.092684452E-1,7.576544300E-2,1.906140197E0
5.044241542E0,2.422861049E0,-4.497467780E-1,8.713228405E-2,2.465789906E0
5.054319542E0,2.828587648E0,-5.342479612E-1,1.848251512E-1,2.884525837E0
5.064397542E0,3.011581525E0,-5.399124514E-1,3.903571203E-1,3.084397415E0
5.074475542E0,3.002950450E0,-4.125583403E-1,6.497389488E-1,3.100012337E0
5.084553542E0,2.784814807E0,-4.904001296E-2,8.008650613E-1,2.898099943E0
5.094631542E0,2.609193685E0,2.816786505E-1,9.114569592E-1,2.778126768E0
5.104709542E0,2.831138788E0,3.107407741E-1,1.021509890E0,3.025787356E0
5.114787542E0,3.147887723E0,1.895212694E-1,9.945349301E-1,3.306692480E0
5.124865542E0,3.135292820E0,2.569748953E-1,7.764501585E-1,3.240211724E0
5.134942542E0,3.002515417E0,3.767033601E-1,5.126897156E-1,3.069178228E0
5.145020542E0,2.853241848E0,4.455549091E-1,3.012257463E-1,2.903488449E0
5.155098542E0,2.577856117E0,5.597204791E-1,1.297869913E-1,2.641112235E0
5.165176542E0,2.086523942E0,7.051266991E-1,4.751783654E-2,2.202962498E0
5.175254542E0,1.605937194E0,8.920946355E-1,3.856589556E-2,1.837485902E0
5.185332542E0,1.308929045E0,8.840820497E-1,6.198048592E-2,1.580739667E0
5.195410542E0,1.263743516E0,6.248530528E-1,1.221737704E-1,1.415067293E0
5.205488542E0,1.368423294E0,2.026585011E-1,2.050431418E-1,1.398461823E0
5.215565542E0,1.628727302E0,-2.648727295E-1,3.483103041E-1,1.686484585E0
5.225643542E0,1.909939783E0,-6.137515292E-1,5.523904096E-1,2.080792176E0
5.235721542E0,2.079110257E0,-8.909196375E-1,7.748338419E-1,2.390984053E0
5.245799542E0,1.979363190E0,-1.050049565E0,1.107394232E0,2.499360861E0
5.255877542E0,1.658567982E0,-1.133433345E0,1.400332135E0,2.448764788E0
5.265955542E0,1.377545536E0,-1.081331876E0,1.641965398E0,2.400616733E0
5.276033542E0,8.668935746E-1,-8.736326368E-1,1.762637311E0,2.149797373E0
5.286111542E0,2.691514295E-1,-6.824060270E-1,1.623922060E0,1.781921248E0
5.296189542E0,-2.223877376E-1,-4.430531779E-1,1.400021648E0,1.485197980E0
5.306266542E0,-6.719310325E-1,-1.706406100E-1,1.128804982E0,1.324692499E0
5.316344542E0,-1.192849535E0,8.631075025E-3,7.988249677E-1,1.435648229E0
5.326422542E0,-1.826694143E0,1.370080103E-1,5.649952523E-1,1.916977393E0
5.336500542E0,-2.405028795E0,2.200813034E-1,3.966517210E-1,2.447433732E0
5.346578542E0,-3.004236837E0,3.299164255E-1,1.146943045E-1,3.024473277E0
5.356656542E0,-3.532124636E0,4.723227315E-1,-1.840807275E-1,3.568315978E0
5.366734542E0,-3.963004788E0,5.943222548E-1,-3.882631592E-1,4.026086707E0
5.376812542E0,-4.235782660E0,7.406046800E-1,-5.766904145E-1,4.338539140E0
5.386890542E0,-4.372980559E0,7.177824126E-1,-6.104925835E-1,4.473351289E0
5.396967542E0,-4.321872386E0,6.860440184E-1,-5.416544831E-1,4.409379423E0
5.407045542E0,-4.196752496E0,6.610547729E-1,-4.240734082E-1,4.269609254E0
5.417123542E0,-4.002605640E0,6.947585624E-1,-2.822165944E-1,4.072246011E0
5.427201542E0,-3.742912082E0,7.543935840E-1,-1.287792237E-1,3.820351374E0
5.437279542E0,-3.456374542E0,8.083531518E-1,8.277128443E-2,3.550607114E0
5.447357542E0,-3.182987974E0,8.362496330E-1,1.693106608E-1,3.295359159E0
5.457435542E0,-2.938892448E0,9.472939593E-1,1.974405921E-1,3.094097195E0
5.467513542E0,-2.712069597E0,9.925652955E-1,1.417480557E-1,2.891470193E0
5.477590542E0,-2.363532860E0,9.351659569E-1,1.011965919E-1,2.543828551E0
5.487668542E0,-1.958616099E0,8.319010587E-1,5.285005867E-2,2.128621508E0
5.497746542E0,-1.515897675E0,6.108700213E-1,1.165291607E-2,1.634393996E0
5.507824542E0,-1.049864062E0,4.209278986E-1,1.001214351E-1,1.135525934E0
5.517902542E0,-5.465965497E-1,2.999947612E-1,1.079992425E-1,6.327941856E-1
5.527980542E0,-2.381711268E-1,1.754913139E-1,1.256911629E-1,3.214357718E-1
5.538058542E0,1.108257866E-1,9.881502092E-2,5.400093690E-2,1.579964067E-1
5.548136542E0,5.584038323E-1,-3.410783216E-2,1.355602397E-1,5.756342265E-1
5.558214542E0,1.115759259E0,-2.537826079E-1,1.720052040E-1,1.157112841E0
5.568291542E0,1.788175026E0,-5.601607744E-1,2.777754879E-1,1.894336094E0
5.578369542E0,2.567610041E0,-7.933699541E-1,3.565193564E-1,2.710934020E0
5.588447542E0,3.285528840E0,-1.080663686E0,3.822628927E-1,3.479749802E0
5.598525542E0,4.041971435E0,-1.458445857E0,6.564609079E-1,4.346899852E0
5.608603542E0,4.532091483E0,-1.605874190E0,9.004114227E-1,4.891771239E0
5.618681542E0,4.728095414E0,-1.496985002E0,9.342334722E-1,5.046646661E0
5.628759542E0,4.737379038E0,-1.266374471E0,1.023698941E0,5.009433499E0
5.638837542E0,4.606020169E0,-9.714802359E-1,8.565230991E-1,4.784644968E0
5.648915542E0,4.566684195E0,-8.407723081E-1,6.189014643E-1,4.684500148E0
5.658992542E0,4.506117566E0,-8.613413510E-1,4.718223560E-1,4.611899910E0
5.669070542E0,4.471771021E0,-9.463092881E-1,2.351036775E-1,4.576845101E0
5.679148542E0,4.168948985E0,-8.636200109E-1,-2.195395589E-2,4.257517721E0
5.689226542E0,3.680084919E0,-7.178584264E-1,-1.705100709E-1,3.753321118E0
5.699304542E0,3.093176495E0,-4.479740484E-1,-2.603425992E-1,3.136271648E0
5.709386292E0,2.472654768E0,-1.556499571E-1,-2.675329202E-1,2.491951519E0
5.719464292E0,1.812643869E0,2.838744262E-1,-3.325679916E-1,1.864635073E0
5.729542292E0,1.223257980E0,6.435261360E-1,-4.584380794E-1,1.456245668E0
5.739620292E0,7.102338034E-1,8.446248923E-1,-4.416103774E-1,1.188630720E0
5.749697292E0,4.747886485E-1,8.919791530E-1,-3.226261170E-1,1.060725545E0
5.759775292E0,8.817016482E-3,1.663116678E0,-3.627250063E-1,1.702235076E0
5.769853292E0,3.057216704E-2,2.275430961E0,-2.150873719E0,3.131258289E0
5.779931292E0,1.138698471E0,-6.963871582E-1,-1.728234195E0,2.183662683E0
5.790009292E0,8.371353400E-1,-6.660914183E-1,1.175583803E0,1.589487538E0
5.800087292E0,-2.805587626E-1,4.353021088E-1,4.905449943E-1,7.133270895E-1
5.810165292E0,7.064781368E-2,-1.014251741E0,-1.699741736E0,1.980610935E0
5.820243292E0,2.285776001E-1,-2.269839561E0,4.176573316E-1,2.319236297E0
5.830320292E0,-3.915126032E-1,-1.815306252E0,1.269919930E0,2.249736771E0
5.840398292E0,-1.064783818E0,-1.688515374E0,6.535508949E-1,2.100470785E0
5.850476292E0,-1.339239256E0,-1.623944572E0,5.190427154E-1,2.167985955E0
5.860554292E0,-1.693756526E0,-1.415887775E0,4.318449426E-1,2.249453137E0
5.870632292E0,-2.037962231E0,-1.257932261E0,4.193558747E-1,2.431366484E0
5.880710292E0,-2.277515640E0,-1.172711212E0,3.627646943E-1,2.587262511E0
5.890788292E0,-2.486015655E0,-1.143636663E0,1.763799445E-1,2.742132116E0
5.900866292E0,-2.686230751E0,-1.125753758E0,-1.279370785E-3,2.912586275E0
5.910944292E0,-2.931791005E0,-1.187143310E0,-1.571367578E-1,3.166922748E0
5.921021292E0,-3.103797963E0,-1.252945609E0,-3.504417604E-1,3.365448547E0
5.931099292E0,-3.270807890E0,-1.180174525E0,-3.971931732E-1,3.499822650E0
5.941177292E0,-3.504386029E0,-1.148612717E0,-5.763541996E-1,3.732588482E0
5.951255292E0,-3.601035241E0,-1.114985380E0,-6.398713338E-1,3.823621651E0
5.961333292E0,-3.741311699E0,-1.082302076E0,-7.604157776E-1,3.968251903E0
5.971411292E0,-3.852995857E0,-1.086952074E0,-9.134339029E-1,4.106263920E0
5.981489292E0,-3.863965234E0,-1.105186616E0,-9.674522352E-1,4.133718497E0
5.991567292E0,-3.918908011E0,-1.123610900E0,-1.090757149E0,4.220200541E0
6.001645292E0,-3.870687193E0,-1.174753572E0,-1.161813099E0,4.208571607E0
6.011722292E0,-3.770811487E0,-1.167237853E0,-1.181714682E0,4.120426321E0
6.021800292E0,-3.573562099E0,-1.044845982E0,-1.123701678E0,3.889055754E0
6.031878292E0,-3.191218514E0,-8.383904448E-1,-1.011792256E0,3.451158894E0
6.041956292E0,-2.735332745E0,-6.602330929E-1,-9.516746932E-1,2.970460854E0
6.052034292E0,-2.188084230E0,-3.994520988E-1,-8.674350268E-1,2.387408240E0
6.062112292E0,-1.567026898E0,-3.121053681E-2,-7.806114757E-1,1.750971636E0
6.072190292E0,-9.361830801E-1,3.776016386E-1,-6.830367954E-1,1.218835929E0
6.082268292E0,-3.919862276E-1,7.764755939E-1,-4.988465787E-1,1.002704074E0
6.092346292E0,8.737786710E-2,1.043015949E0,-3.691898341E-1,1.109873099E0
6.102423292E0,5.450025988E-1,1.196360495E0,-2.121299672E-1,1.331655132E0
6.112501292E0,1.017954052E0,1.315740905E0,-7.469233274E-2,1.665227770E0
6.122579292E0,1.487050436E0,1.342546149E0,2.838954762E-2,2.003635478E0
6.132657292E0,1.880375091E0,1.255149425E0,9.805385962E-2,2.262924020E0
6.142735292E0,2.196645139E0,1.250781701E0,1.567799315E-2,2.527835147E0
6.152813292E0,2.378670132E0,1.254635308E0,2.615547270E-2,2.689398717E0
6.162891292E0,2.332226282E0,1.326378306E0,3.707470939E-2,2.683269158E0
6.172969292E0,2.261620569E0,1.575395579E0,9.959138498E-2,2.758027786E0
6.183047292E0,2.095696469E0,1.852404935E0,2.394988833E-1,2.807259776E0
6.193124292E0,2.119300509E0,1.943597234E0,3.521870081E-1,2.897074480E0
6.203202292E0,2.422246506E0,1.746522385E0,4.074950901E-1,3.013912876E0
6.213280292E0,2.743836350E0,1.481982801E0,4.038473046E-1,3.144519611E0
6.223358292E0,2.800612230E0,1.288907740E0,3.424456930E-1,3.101931830E0
6.233436292E0,2.751995555E0,1.096190967E0,2.643508655E-1,2.974053724E0
6.243514292E0,2.720214184E0,9.351634718E-1,1.757164317E-1,2.881834865E0
6.253592292E0,2.612958707E0,9.591051887E-1,1.421949291E-1,2.787051375E0
6.263670292E0,2.275567932E0,1.234595877E0,1.941579652E-1,2.596176748E0
6.273748292E0,2.044384228E0,1.413017669E0,3.508572051E-1,2.509826007E0
6.283826292E0,1.940106738E0,1.273565523E0,3.847918135E-1,2.352455746E0
6.293903292E0,1.984846709E0,9.374064638E-1,4.274946141E-1,2.236313704E0
6.303981292E0,2.164129357E0,3.399136294E-1,4.958501731E-1,2.246077591E0
6.314059292E0,2.407961174E0,-2.456352438E-1,4.221508437E-1,2.456995120E0
6.324137292E0,2.646369697E0,-7.393799076E-1,2.823969810E-1,2.762191753E0
6.334215292E0,2.703376542E0,-1.028320873E0,2.226268888E-1,2.900905251E0
6.344293292E0,2.578296413E0,-1.113863080E0,3.044193493E-1,2.825061857E0
6.354371292E0,2.329102115E0,-1.071608468E0,5.834981816E-1,2.629359523E0
6.364449292E0,2.063605780E0,-1.169452413E0,7.281296454E-1,2.481181280E0
6.374527292E0,1.629438908E0,-1.075625432E0,8.285282385E-1,2.120966824E0
6.384604292E0,9.457573110E-1,-8.440887026E-1,8.493682998E-1,1.525899452E0
6.394682292E0,3.319785923E-1,-5.648750190E-1,8.241637306E-1,1.052871990E0
6.404760292E0,-2.800483006E-1,-3.036891782E-1,7.342977270E-1,8.425243733E-1
6.414838292E0,-9.825292808E-1,2.820031710E-2,4.410810582E-1,1.077363237E0
6.424916292E0,-1.654007154E0,2.553511235E-1,1.328212577E-1,1.678864303E0
6.434994292E0,-2.263444315E0,4.654928181E-1,-2.545744671E-1,2.324795021E0
6.445072292E0,-2.734251595E0,5.857465091E-1,-6.017096271E-1,2.860294606E0
6.455150292E0,-3.104294391E0,5.850239394E-1,-8.227168371E-1,3.264316111E0
6.465228292E0,-3.484464566E0,6.185661265E-1,-1.084416429E0,3.701361419E0
6.475306292E0,-3.838948506E0,6.503197235E-1,-1.182868922E0,4.069351332E0
6.485383292E0,-4.026026663E0,6.896628602E-1,-1.166836442E0,4.248062244E0
6.495461292E0,-4.188520201E0,7.148923532E-1,-1.178039268E0,4.409370598E0
6.505539292E0,-4.240939320E0,7.318842157E-1,-1.109561941E0,4.444361430E0
6.515617292E0,-4.188374605E0,6.883596620E-1,-1.082216706E0,4.380355449E0
6.525695292E0,-4.044587479E0,6.011825737E-1,-9.420596780E-1,4.196139273E0
6.535773292E0,-3.883709527E0,5.753441297E-1,-8.727590628E-1,4.021930996E0
6.545851292E0,-3.723474768E0,4.051500642E-1,-8.008375794E-1,3.830111193E0
6.555929292E0,-3.351312355E0,1.921994768E-1,-6.689876904E-1,3.422832113E0
6.566006292E0,-2.866131451E0,-4.767878115E-2,-6.738629526E-1,2.944668748E0
6.576084292E0,-2.384840698E0,-3.739539262E-1,-5.777237637E-1,2.482150568E0
6.586162292E0,-1.870539490E0,-6.156364522E-1,-4.519510321E-1,2.020442021E0
6.596240292E0,-1.429234922E0,-7.588759133E-1,-3.209128828E-1,1.649724278E0
6.606318292E0,-9.812218434E-1,-8.806658140E-1,-2.148676336E-1,1.335865518E0
6.616396292E0,-5.695901406E-1,-8.715675464E-1,-8.557692468E-2,1.044694370E0
6.626474292E0,-1.927446932E-1,-8.647713277E-1,7.538756669E-2,8.891924714E-1
6.636552292E0,3.435373682E-1,-9.028347281E-1,1.873952217E-1,9.839946335E-1
6.646630292E0,1.099403427E0,-1.014013833E0,3.220598873E-1,1.529913239E0
6.656708292E0,2.010468038E0,-1.228138943E0,5.099676906E-1,2.410471747E0
6.666785292E0,2.872858087E0,-1.500498447E0,7.861353403E-1,3.335088898E0
6.676863292E0,3.389435617E0,-1.641430524E0,1.062824342E0,3.913075970E0
6.686941292E0,3.626928467E0,-1.631098640E0,1.290925468E0,4.181098114E0
6.697019292E0,3.782122926E0,-1.512031788E0,1.538585456E0,4.354071561E0
6.707097292E0,3.576628379E0,-1.340956730E0,1.693503926E0,4.178323953E0
6.717171667E0,3.169466872E0,-1.097598830E0,1.610854118E0,3.720899681E0
6.727249667E0,3.133942698E0,-1.121397144E0,1.484985784E0,3.644764899E0
6.737327667E0,3.679589660E0,-1.643421501E0,1.469322848E0,4.289419999E0
6.747405667E0,4.217200209E0,-2.115118580E0,1.331071866E0,4.902066556E0
6.757482667E0,4.448472206E0,-2.283373965E0,1.098911676E0,5.119600424E0
6.767560667E0,4.416582661E0,-2.187449223E0,1.078749234E0,5.045278626E0
6.777638667E0,3.875699426E0,-1.638491421E0,1.036326588E0,4.333552004E0
6.787716667E0,2.851704031E0,-7.317813778E-1,9.762488595E-1,3.101738496E0
6.797794667E0,1.729771866E0,1.308482610E-1,9.038521437E-1,1.956062544E0
6.807872667E0,1.122551385E0,6.046032679E-1,8.801720166E-1,1.549312590E0
6.817950667E0,6.880348492E-1,8.919465548E-1,7.339009935E-1,1.344459474E0
6.828028667E0,3.999548131E-1,1.105934475E0,4.787916158E-1,1.269762311E0
6.838106667E0,4.056295359E-1,1.033473440E0,2.910924850E-1,1.147753242E0
6.848184667E0,5.853852242E-1,8.649505448E-1,3.578024548E-2,1.045033747E0
6.858261667E0,6.104317725E-1,7.771869077E-1,-1.799007358E-1,1.004495253E0
6.868339667E0,4.707493919E-1,7.161549863E-1,-1.253649066E-1,8.661404703E-1
6.878417667E0,3.899168980E-1,6.170521362E-1,-4.084983626E-2,7.310658214E-1
6.888495667E0,2.858563399E-1,4.977918872E-1,4.126610320E-2,5.755115128E-1
6.898573667E0,1.121846795E-1,5.294568989E-1,-4.442074914E-2,5.430315028E-1
6.908651667E0,-2.748969036E-1,5.392848989E-1,-8.893731952E-2,6.118058161E-1
6.918729667E0,-8.034600556E-1,4.764644605E-1,-1.626233464E-1,9.481628530E-1
6.928807667E0,-1.254457553E0,4.382394576E-1,-4.695132905E-1,1.409311997E0
6.938885667E0,-1.677649786E0,4.453729145E-1,-5.761104438E-1,1.828870985E0
6.948963667E0,-2.097597983E0,4.771718274E-1,-5.911909246E-1,2.230945307E0
6.959040667E0,-2.405987738E0,4.782871838E-1,-5.344992453E-1,2.510622447E0
6.969118667E0,-2.626926536E0,4.079960503E-1,-4.794722682E-1,2.701314024E0
6.979196667E0,-2.738491995E0,3.856421448E-1,-3.674402741E-1,2.789815519E0
6.989274667E0,-2.822849191E0,4.403098105E-1,-2.075849630E-1,2.864514235E0
6.999352667E0,-2.859424109E0,4.614138736E-1,-6.313589573E-2,2.897101162E0
7.009430667E0,-2.848496833E0,4.445940654E-1,7.886015497E-2,2.884062588E0
7.019508667E0,-2.787961779E0,4.300011693E-1,1.520012214E-1,2.825019691E0
7.029586667E0,-2.769723728E0,3.916096669E-1,1.508705161E-1,2.801337105E0
7.039664667E0,-2.682611325E0,3.728443439E-1,1.052259082E-1,2.710440724E0
7.049741667E0,-2.569712116E0,2.568744694E-1,-1.929522693E-2,2.582591171E0
7.059819667E0,-2.518951852E0,1.995657626E-1,-5.582804561E-2,2.527461512E0
7.069897667E0,-2.395700732E0,4.164397951E-1,-2.031615809E-1,2.440098098E0
7.079975667E0,-1.949239504E0,7.388796783E-1,-6.141284553E-1,2.173161656E0
7.090053667E0,-1.582540730E0,1.030847601E0,-9.399668133E-1,2.109649153E0
7.100131667E0,-1.273332365E0,1.342928119E0,-1.247668936E0,2.231929438E0
7.110209667E0,-9.497801954E-1,1.548655092E0,-1.353957868E0,2.265748645E0
7.120287667E0,-6.161228675E-1,1.703683052E0,-1.295742696E0,2.227350997E0
7.130365667E0,-3.040382570E-1,1.877792961E0,-1.202962440E0,2.250703068E0
7.140442667E0,-6.064790547E-2,2.078825059E0,-1.272575151E0,2.438163101E0
7.150520667E0,2.608361042E-1,2.149058744E0,-1.296533386E0,2.523388154E0
7.160598667E0,4.831343794E-1,2.066933138E0,-1.245528855E0,2.461091943E0
7.170676667E0,7.568653482E-1,1.790684066E0,-1.204603754E0,2.287020941E0
7.180754667E0,1.037644551E0,1.409832106E0,-1.226420885E0,2.137391159E0
7.190832667E0,1.469908154E0,1.142794445E0,-1.127059588E0,2.176435719E0
7.200910667E0,1.836517466E0,8.549028356E-1,-1.000389016E0,2.259299326E0
7.210988667E0,2.093081594E0,6.843069568E-1,-8.977844149E-1,2.378083982E0
7.221066667E0,2.306695000E0,6.866187266E-1,-6.326077764E-1,2.488469348E0
7.231144667E0,2.286838440E0,8.652881484E-1,-2.995158742E-1,2.463343945E0
7.241221667E0,2.047649313E0,1.215071659E0,-1.153056309E-2,2.381050146E0
7.251299667E0,1.898483334E0,1.516963622E0,1.837388116E-1,2.437042788E0
7.261377667E0,2.095601744E0,1.538668048E0,1.617006558E-1,2.604840328E0
7.271455667E0,2.606551913E0,1.296130659E0,-3.303165212E-2,2.911212574E0
7.281533667E0,3.033750073E0,9.984923988E-1,-2.706265359E-1,3.205287085E0
7.291611667E0,3.153110456E0,8.905821070E-1,-4.589847940E-1,3.308460228E0
7.301689667E0,2.927027863E0,7.422446048E-1,-6.906177105E-1,3.097639744E0
7.311767667E0,3.051734939E0,6.863379141E-1,-7.452342130E-1,3.215512386E0
7.321845667E0,3.100374418E0,5.219990677E-1,-7.582014370E-1,3.234141923E0
7.331923667E0,3.200434311E0,3.644383867E-1,-6.383101273E-1,3.283753178E0
7.342000667E0,3.247299744E0,7.214301981E-2,-4.460380353E-1,3.278583562E0
7.352078667E0,3.004711631E0,-4.225210456E-1,-1.303225963E-1,3.037070957E0
7.362156667E0,2.985856115E0,-1.149757383E0,2.246373077E-1,3.207450810E0
7.372234667E0,3.290647493E0,-1.983916563E0,2.698551419E-1,3.851896630E0
7.382312667E0,3.719997429E0,-2.810771767E0,1.390618448E-1,4.664563966E0
7.392390667E0,4.011273553E0,-3.204158987E0,1.435022935E-1,5.135907246E0
7.402468667E0,3.830962379E0,-3.190823827E0,4.441860759E-1,5.005490058E0
7.412546667E0,3.154476950E0,-2.773459514E0,8.021051826E-1,4.276233767E0
7.422624667E0,2.204658163E0,-1.895667315E0,1.248875216E0,3.164452795E0
7.432702667E0,1.247779448E0,-1.098058129E0,1.581333865E0,2.294188745E0
7.442779667E0,3.563456941E-1,-5.117947993E-1,1.402365797E0,1.534778811E0
7.452857667E0,-4.914713395E-1,3.661125907E-1,1.114668168E0,1.272032874E0
7.462935667E0,-1.648455223E0,1.364514138E0,5.903927797E-1,2.219879972E0
7.473013667E0,-2.753728085E0,2.338841091E0,-1.944159005E-1,3.618147808E0
7.483091667E0,-3.349129590E0,3.303253505E0,-1.141789382E0,4.840644143E0
7.493169667E0,-3.486859000E0,4.749498562E0,-2.059194056E0,6.241490402E0
7.503247667E0,-4.035017926E0,6.690011097E0,-2.772656692E0,8.290068955E0
7.513325667E0,-5.253275952E0,8.169366598E0,-2.451418265E0,1.001723067E1
7.523403667E0,-6.750609301E0,8.571991249E0,-1.468309525E0,1.100934570E1
7.533481667E0,-7.665073484E0,8.466908598E0,-9.004402202E-1,1.145655643E1
7.543558667E0,-8.088144094E0,8.375495567E0,-6.728309190E-1,1.166274849E1
7.553636667E0,-7.613420935E0,7.952765265E0,-3.166074318E-1,1.101412248E1
7.563714667E0,-6.441410292E0,6.260279338E0,5.580230872E-2,8.982537383E0
7.573792667E0,-5.589175687E0,4.189867692E0,9.514296949E-1,7.049758478E0
7.583870667E0,-5.120175782E0,2.579054504E0,2.073648373E0,6.096535061E0
7.593948667E0,-4.461413848E0,1.233516043E0,3.276817074E0,5.671270183E0
7.604026667E0,-3.439833938E0,-5.649910862E-1,4.086088092E0,5.371013717E0
7.614104667E0,-1.766309947E0,-2.627926995E0,4.123299773E0,5.198793334E0
7.624182667E0,-5.996951151E-1,-4.559394179E0,3.843884726E0,5.993593187E0
7.634259667E0,3.188931084E-1,-6.356430953E0,3.439797685E0,7.234508648E0
7.644337667E0,1.246867282E0,-7.925871581E0,2.883281919E0,8.525692521E0
7.654415667E0,1.702666513E0,-9.041005772E0,2.159177935E0,9.449915766E0
7.664493667E0,1.541845863E0,-9.560908613E0,1.351492682E0,9.778281784E0
7.674571667E0,1.202483992E0,-9.147594666E0,9.312235449E-1,9.273167378E0
7.684649667E0,8.524801880E-1,-8.675225011E0,7.264031088E-1,8.747223156E0
7.694727667E0,4.629924756E-1,-8.910591813E0,8.233340107E-2,8.922992059E0
7.704805667E0,5.030634445E-1,-8.906856612E0,-2.652076288E-1,8.924993144E0
7.714886833E0,1.087273378E0,-8.567999940E0,-3.575719283E-1,8.644110368E0
7.724964833E0,1.592705530E0,-7.990742930E0,-5.396826558E-1,8.165778643E0
7.735041833E0,2.048983648E0,-7.423734920E0,-6.518066704E-1,7.728843774E0
7.745119833E0,2.679424008E0,-6.547946561E0,-8.403149097E-1,7.124678682E0
7.755197833E0,3.359497288E0,-5.507162640E0,-1.047411155E0,6.535451974E0
7.765275833E0,3.572396749E0,-4.591287817E0,-1.108266637E0,5.922009565E0
7.775353833E0,3.703467935E0,-3.603584043E0,-1.120792104E0,5.287501077E0
7.785431833E0,3.942683959E0,-2.867573666E0,-9.030311215E-1,4.958144889E0
7.795509833E0,4.356625897E0,-2.537260361E0,-3.329672103E-1,5.052597996E0
7.805587833E0,4.589876007E0,-2.427416322E0,4.257182300E-1,5.209659084E0
7.815665833E0,4.568658800E0,-2.320943495E0,1.078713639E0,5.236701734E0
7.825743833E0,4.602131186E0,-1.996742869E0,1.696753224E0,5.295806364E0
7.835821833E0,4.289331461E0,-1.846166249E0,1.909701802E0,5.045161561E0
7.845898833E0,3.589387588E0,-1.802847444E0,2.378174872E0,4.667941504E0
7.855976833E0,3.008131083E0,-1.226977686E0,2.448450803E0,4.068075489E0
7.866054833E0,2.385150016E0,-7.882874081E-1,2.093041833E0,3.269734202E0
7.876132833E0,2.076591861E0,-6.758704479E-1,1.860209214E0,2.868695338E0
7.886210833E0,1.999193437E0,-5.707552714E-1,1.595020881E0,2.620425078E0
7.896288833E0,1.990670536E0,-5.822490701E-1,1.305960852E0,2.450982845E0
7.906366833E0,1.988069109E0,-4.914606683E-1,1.258439653E0,2.403668599E0
7.916444833E0,1.894787893E0,-2.167052673E-1,1.035637348E0,2.170190556E0
7.926522833E0,1.701574253E0,5.598065794E-2,1.058115214E0,2.004519040E0
7.936600833E0,1.663505956E0,3.577327998E-1,1.116446745E0,2.035111338E0
7.946677833E0,1.536934202E0,6.531911449E-1,1.089248714E0,1.993812472E0
7.956755833E0,1.472409593E0,9.629438858E-1,1.008107926E0,2.027691428E0
7.966833833E0,1.220394598E0,1.328391356E0,1.032499001E0,2.078470774E0
7.976911833E0,7.670693243E-1,1.691427434E0,7.793287428E-1,2.014119014E0
7.986989833E0,4.194061607E-1,1.979451483E0,4.675145660E-1,2.076704016E0
7.997067833E0,-7.377256572E-2,2.223188867E0,-9.386184454E-2,2.226391963E0
8.007145833E0,-7.005180699E-1,2.524133362E0,-5.744349973E-1,2.681781192E0
8.017223833E0,-1.304153624E0,2.726331833E0,-9.609201644E-1,3.171288303E0
8.027301833E0,-1.832388747E0,2.795895281E0,-1.244181656E0,3.566884766E0
8.037379833E0,-2.269810764E0,2.773705682E0,-1.454664317E0,3.868014011E0
8.047456833E0,-2.558528731E0,2.711901782E0,-1.567668922E0,4.044510649E0
8.057534833E0,-2.926480563E0,2.583824955E0,-1.648095619E0,4.237529830E0
8.067612833E0,-3.178281550E0,2.441615700E0,-1.525986022E0,4.288542197E0
8.077690833E0,-3.309010089E0,2.254660628E0,-1.422549654E0,4.249316396E0
8.087768833E0,-3.368039485E0,1.966090887E0,-1.405206520E0,4.145335778E0
8.097846833E0,-3.374594214E0,1.693723197E0,-1.344241111E0,4.007938191E0
8.107924833E0,-3.389351417E0,1.475903304E0,-1.353791368E0,3.936844505E0
8.118002833E0,-3.441184645E0,1.320555648E0,-1.425187918E0,3.951807128E0
8.128080833E0,-3.440264878E0,1.190112745E0,-1.450039900E0,3.918469917E0
8.138158833E0,-3.343270095E0,1.079943163E0,-1.443032597E0,3.798167353E0
8.148236833E0,-3.195682864E0,1.033876313E0,-1.407962898E0,3.641929257E0
8.158313833E0,-3.028941908E0,1.060174750E0,-1.308918520E0,3.465793888E0
8.168391833E0,-2.753997642E0,1.053625430E0,-1.194165743E0,3.181298694E0
8.178469833E0,-2.355497031E0,1.054916349E0,-1.034498164E0,2.780539735E0
8.188547833E0,-1.977582128E0,1.134045256E0,-8.416587460E-1,2.430078015E0
8.198625833E0,-1.528111923E0,1.318281227E0,-5.368293607E-1,2.088343173E0
8.208703833E0,-9.712155032E-1,1.417981955E0,-2.828450239E-1,1.741819074E0
8.218781833E0,-4.812691176E-1,1.543989307E0,-5.257407010E-2,1.618112164E0
8.228859833E0,8.129383922E-3,1.736456695E0,1.219593237E-1,1.740753291E0
8.238937833E0,5.744830906E-1,1.821197468E0,3.002400519E-1,1.933115395E0
8.249015833E0,1.202543049E0,1.828987129E0,3.371586406E-1,2.214718865E0
8.259092833E0,1.853251612E0,1.798262934E0,4.274332184E-1,2.617439641E0
8.269170833E0,2.361918443E0,1.714883978E0,5.476443708E-1,2.969747489E0
8.279248833E0,2.710759236E0,1.662901061E0,6.329308350E-1,3.242538669E0
8.289326833E0,2.862174055E0,1.702862687E0,7.633218437E-1,3.416788242E0
8.299404833E0,3.009678256E0,1.656429802E0,9.211973973E-1,3.556758009E0
8.309482833E0,3.503991927E0,1.357718504E0,1.074013063E0,3.908306925E0
8.319560833E0,4.206747726E0,7.658906718E-1,1.185929794E0,4.437312749E0
8.329638833E0,5.100373017E0,1.339757904E-1,1.235182791E0,5.249517211E0
8.339716833E0,5.972970550E0,-5.644469297E-1,1.245051137E0,6.127408087E0
8.349794833E0,6.181725504E0,-8.537374856E-1,1.232526401E0,6.360952699E0
8.359871833E0,5.524575648E0,-3.828824052E-1,1.003245235E0,5.627969086E0
8.369949833E0,4.213404781E0,3.051122443E-1,8.915797882E-1,4.317497869E0
8.380027833E0,3.002147627E0,7.270368008E-1,7.787994236E-1,3.185592790E0
8.390105833E0,2.192385442E0,7.844288304E-1,6.547864115E-1,2.418807095E0
8.400183833E0,1.548109401E0,5.492902158E-1,4.057334702E-1,1.692034901E0
8.410261833E0,1.092200242E0,1.335030431E-1,3.263753517E-1,1.147713075E0
8.420339833E0,9.625645477E-1,-4.475859395E-1,2.052980804E-1,1.081208113E0
8.430417833E0,1.026346561E0,-9.869819355E-1,1.228290971E-1,1.429198234E0
8.440495833E0,1.129872099E0,-1.435122191E0,1.066198844E-1,1.829632330E0
8.450573833E0,1.191863109E0,-1.651277381E0,2.889670587E-1,2.056880313E0
8.460651833E0,1.254525965E0,-1.741323479E0,5.071154188E-1,2.205268443E0
8.470728833E0,1.099088262E0,-1.726877494E0,5.802482991E-1,2.127625197E0
8.480806833E0,7.483032703E-1,-1.556640489E0,7.651460288E-1,1.889056865E0
8.490884833E0,3.607580030E-1,-1.347344813E0,7.285272561E-1,1.573606159E0
8.500962833E0,-1.081027383E-1,-1.054574433E0,5.501632051E-1,1.194358819E0
8.511040833E0,-7.097859067E-1,-6.729797307E-1,2.751114964E-1,1.016063033E0
8.521118833E0,-1.244852917E0,-2.900615112E-1,-5.256719962E-2,1.279280178E0
8.531196833E0,-1.654679584E0,1.838510782E-2,-2.646163291E-1,1.675805579E0
8.541274833E0,-1.990567625E0,2.907677087E-1,-4.428308375E-1,2.059855451E0
8.551352833E0,-2.235230330E0,4.518994305E-1,-4.047331578E-1,2.316090813E0
8.561430833E0,-2.402778202E0,5.016396475E-1,-3.154572845E-1,2.474772458E0
8.571507833E0,-2.513094111E0,5.078140149E-1,-2.299283069E-1,2.574176395E0
8.581585833E0,-2.688837440E0,5.611781900E-1,-1.605407144E-1,2.751461623E0
8.591663833E0,-2.874812812E0,6.030460082E-1,-9.770068780E-2,2.939006399E0
8.601741833E0,-2.986294071E0,6.917868613E-1,-1.401859720E-1,3.068578408E0
8.611819833E0,-3.176936105E0,7.122502157E-1,-2.101606250E-1,3.262574271E0
8.621897833E0,-3.403730305E0,6.656011292E-1,-2.546883416E-1,3.477538066E0
8.631975833E0,-3.588159088E0,6.834488779E-1,-3.511405027E-1,3.669507823E0
8.642053833E0,-3.703356253E0,6.255376156E-1,-5.258424425E-1,3.792447115E0
8.652131833E0,-3.807296943E0,5.243190967E-1,-5.887502968E-1,3.888064742E0
8.662209833E0,-3.839981709E0,4.579700097E-1,-7.006335524E-1,3.930150561E0
8.672287833E0,-3.799140077E0,3.635905404E-1,-7.387056506E-1,3.887331919E0
8.682364833E0,-3.758314233E0,2.816046833E-1,-8.092868060E-1,3.854759682E0
8.692442833E0,-3.586629456E0,1.691216496E-1,-7.663676584E-1,3.671489123E0
8.702520833E0,-3.151819975E0,1.020122784E-1,-7.428560042E-1,3.239785596E0
8.712595042E0,-2.736820861E0,1.860225879E-2,-7.384309776E-1,2.834751273E0
8.722673042E0,-2.279309565E0,5.162945241E-3,-5.914964417E-1,2.354813536E0
8.732751042E0,-1.791985071E0,2.585499890E-2,-4.810026307E-1,1.855597615E0
8.742829042E0,-1.237851461E0,3.210267574E-2,-4.174397421E-1,1.306737448E0
8.752907042E0,-5.563245624E-1,-6.639966533E-2,-3.374831611E-1,6.540648426E-1
8.762985042E0,2.695221430E-1,-1.391105229E-1,-2.615412784E-1,4.004968957E-1
8.773063042E0,1.320050449E0,-2.611312424E-1,-2.003104055E-1,1.360458368E0
8.783141042E0,2.546938965E0,-4.181297135E-1,-1.516440296E-1,2.585483796E0
8.793218042E0,3.522606538E0,-5.153955147E-1,-6.452709451E-2,3.560695593E0
8.803296042E0,4.107611108E0,-4.159896326E-1,3.177713200E-2,4.128743898E0
8.813374042E0,4.286178643E0,-2.059816200E-1,1.264295201E-1,4.292987329E0
8.823452042E0,4.122283527E0,1.064383283E-2,1.209894168E-1,4.124072405E0
8.833530042E0,3.910043047E0,1.461287896E-1,1.634244150E-1,3.916184086E0
8.843608042E0,3.814615903E0,-7.329484820E-3,3.627998507E-1,3.831836627E0
8.853686042E0,3.985944584E0,-4.018785471E-1,5.070243484E-1,4.038110237E0
8.863764042E0,4.132243674E0,-7.438437451E-1,5.831416476E-1,4.238961604E0
8.873842042E0,3.839078899E0,-1.058675524E0,7.517316391E-1,4.052705407E0
8.883920042E0,3.387756881E0,-1.239299816E0,8.503259276E-1,3.706186032E0
8.893998042E0,3.155692586E0,-1.307374416E0,8.702609861E-1,3.524908190E0
8.904075042E0,2.809909887E0,-9.673927398E-1,7.944869184E-1,3.076142349E0
8.914153042E0,1.997864950E0,-5.364875910E-1,6.661148071E-1,2.173244632E0
8.924231042E0,1.276185806E0,-5.353403673E-2,5.398598264E-1,1.386710041E0
8.934309042E0,1.066618089E0,3.404541314E-1,4.453817584E-1,1.204968080E0
8.944387042E0,1.007942449E0,3.110606168E-1,2.975291365E-1,1.096006513E0
8.954465042E0,8.454617751E-1,1.472257273E-1,2.605337300E-1,8.968605535E-1
8.964543042E0,9.488136506E-1,-1.948419432E-1,2.332126880E-1,9.962925696E-1
8.974621042E0,9.696636522E-1,-6.592792659E-1,2.220130773E-1,1.193392875E0
8.984699042E0,6.189423949E-1,-8.823341708E-1,2.212295504E-1,1.100248059E0
8.994777042E0,8.050563455E-2,-8.152611986E-1,2.337839609E-1,8.519312880E-1
9.004855042E0,-4.605442464E-1,-6.003260297E-1,2.830139353E-1,8.078299526E-1
9.014933042E0,-8.647792214E-1,-3.271869452E-1,3.154713178E-1,9.769424503E-1
9.025010042E0,-1.126564913E0,-4.739636064E-2,3.649796927E-1,1.185160367E0
9.035088042E0,-1.304480483E0,1.144231398E-1,3.849934693E-1,1.364910970E0
9.045166042E0,-1.513131357E0,3.098180835E-1,4.361607724E-1,1.604926779E0
9.055244042E0,-1.830146924E0,5.274561279E-1,5.524320710E-1,1.983136134E0
9.065322042E0,-2.095467258E0,7.169319351E-1,6.123724633E-1,2.297819502E0
9.075400042E0,-2.361692156E0,7.211388606E-1,6.534403825E-1,2.554332678E0
9.085478042E0,-2.580597877E0,5.793527980E-1,6.330007824E-1,2.719526624E0
9.095556042E0,-2.834276404E0,4.150115396E-1,5.866091926E-1,2.923947274E0
9.105634042E0,-3.032454915E0,2.057005151E-1,5.177405405E-1,3.083204628E0
9.115712042E0,-3.180703467E0,2.795042172E-2,4.712481594E-1,3.215545148E0
9.125789042E0,-3.333287728E0,-2.901417643E-2,4.390457156E-1,3.362203153E0
9.135867042E0,-3.469114455E0,-6.051254243E-2,3.568446077E-1,3.487944229E0
9.145945042E0,-3.460738903E0,-1.900654989E-1,3.093785191E-1,3.479734720E0
9.156023042E0,-3.480469163E0,-3.277080783E-1,1.905793961E-1,3.501053939E0
9.166101042E0,-3.471599522E0,-3.234208998E-1,9.710646451E-2,3.487984229E0
9.176179042E0,-3.410733515E0,-2.993433814E-1,-4.330338277E-2,3.424118099E0
9.186257042E0,-3.287291191E0,-2.665399168E-1,-2.941744427E-1,3.311172829E0
9.196335042E0,-3.075031416E0,-2.006717634E-1,-5.679225147E-1,3.133468262E0
9.206413042E0,-2.728411396E0,-1.246351558E-1,-7.717978214E-1,2.838209743E0
9.216491042E0,-2.256896018E0,4.178917319E-2,-8.690827721E-1,2.418807731E0
9.226569042E0,-1.791823688E0,1.900412330E-1,-9.620494080E-1,2.042617650E0
9.236647042E0,-1.381790029E0,3.230554488E-1,-1.018549883E0,1.746754812E0
9.246724042E0,-9.302931798E-1,4.932569329E-1,-9.353950216E-1,1.408442987E0
9.256802042E0,-4.787273329E-1,5.574842115E-1,-8.048207027E-1,1.089818732E0
9.266880042E0,-1.122630322E-1,6.601168795E-1,-6.884739751E-1,9.603924705E-1
9.276958042E0,1.569965708E-1,7.709162074E-1,-5.973291855E-1,9.878065995E-1
9.287036042E0,4.923098302E-1,8.028890750E-1,-5.703109561E-1,1.101024261E0
9.297114042E0,8.298228121E-1,7.614635986E-1,-5.697585404E-1,1.262163819E0
9.307192042E0,1.222275648E0,6.033388075E-1,-5.572829211E-1,1.472596255E0
9.317270042E0,1.680458204E0,3.254693256E-1,-6.022544414E-1,1.814546904E0
9.327348042E0,2.021371926E0,4.871008381E-2,-6.663323236E-1,2.128923649E0
9.337426042E0,2.396808779E0,-1.387786934E-1,-7.126387632E-1,2.504357374E0
9.347504042E0,2.754014014E0,-2.355303781E-1,-7.039692427E-1,2.852304409E0
9.357582042E0,2.890641809E0,-3.861015898E-1,-6.995573723E-1,2.999044018E0
9.367659042E0,3.043963990E0,-3.382596713E-1,-4.861831176E-1,3.101049887E0
9.377737042E0,2.876887404E0,-1.549868828E-1,-3.078658444E-1,2.897461552E0
9.387815042E0,2.661018727E0,1.455297424E-1,-1.442512487E-1,2.668896400E0
9.397893042E0,2.479325271E0,3.631407434E-1,-2.248383057E-1,2.515845238E0
9.407971042E0,2.728164643E0,3.110185169E-1,-4.972609600E-1,2.790498755E0
9.418049042E0,3.356694133E0,4.186314046E-3,-6.681636715E-1,3.422551054E0
9.428127042E0,3.638936893E0,-1.113382950E-1,-9.288395619E-1,3.757259754E0
9.438205042E0,3.654765306E0,-1.585253254E-1,-1.298394847E0,3.881786818E0
9.448283042E0,3.493968630E0,1.032983735E-2,-1.385444101E0,3.758640558E0
9.458361042E0,3.179465026E0,2.734291063E-1,-1.402606263E0,3.485837870E0
9.468438042E0,2.559823889E0,7.000152093E-1,-1.310634824E0,2.959811358E0
9.478516042E0,1.878827918E0,1.042725489E0,-1.117237143E0,2.421877293E0
9.488594042E0,1.476933584E0,9.606758970E-1,-8.205005962E-1,1.943566880E0
9.498672042E0,1.313449527E0,5.486902915E-1,-6.191043627E-1,1.552256715E0
9.508750042E0,1.285734310E0,5.667749986E-2,-2.414669099E-1,1.309439316E0
9.518828042E0,1.259317174E0,-5.029655036E-1,9.070200920E-2,1.359073544E0
9.528906042E0,1.354908625E0,-1.120446533E0,3.641610825E-1,1.795491885E0
9.538984042E0,1.454211888E0,-1.624049383E0,5.689011924E-1,2.252979623E0
9.549062042E0,1.406438967E0,-1.685122820E0,8.599897671E-1,2.357390906E0
9.559140042E0,1.166019586E0,-1.580085192E0,1.085692291E0,2.243880264E0
9.569218042E0,7.256032097E-1,-1.417659043E0,1.208401813E0,1.999122838E0
9.579296042E0,3.012567365E-1,-1.038689887E0,1.301441685E0,1.692153291E0
9.589373042E0,-1.344117004E-1,-6.578130765E-1,1.350458309E0,1.508151913E0
9.599451042E0,-5.954196310E-1,-3.240946452E-1,1.264604665E0,1.434847321E0
9.609529042E0,-1.057010529E0,3.114855632E-2,1.032262627E0,1.477771167E0
9.619607042E0,-1.539493529E0,3.403596988E-1,7.177104919E-1,1.732337554E0
9.629685042E0,-1.977167560E0,5.717284673E-1,2.725733663E-1,2.076140950E0
9.639763042E0,-2.402861817E0,6.640231119E-1,-1.174777253E-1,2.495690810E0
9.649841042E0,-2.804466714E0,7.713683434E-1,-4.442762692E-1,2.942350094E0
9.659919042E0,-3.049491363E0,7.124553068E-1,-5.939326841E-1,3.187435673E0
9.669997042E0,-3.225287316E0,5.914455709E-1,-5.887280774E-1,3.331499195E0
9.680075042E0,-3.398163756E0,5.283342335E-1,-6.058895092E-1,3.491955909E0
9.690153042E0,-3.540176836E0,4.913174115E-1,-5.476069486E-1,3.615815012E0
9.700231042E0,-3.548165887E0,5.059945075E-1,-5.351618810E-1,3.623797710E0
9.710308042E0,-3.535866269E0,5.348741980E-1,-4.705827463E-1,3.606922345E0
9.720390333E0,-3.525592711E0,5.794602406E-1,-4.272526856E-1,3.598350037E0
9.730468333E0,-3.513415300E0,6.149494775E-1,-4.078842223E-1,3.590072348E0
9.740546333E0,-3.514581819E0,6.514024816E-1,-4.084186578E-1,3.597695979E0
9.750624333E0,-3.503959767E0,6.339502971E-1,-5.044780321E-1,3.596404470E0
9.760702333E0,-3.399000492E0,5.317541237E-1,-6.039280607E-1,3.492949455E0
9.770780333E0,-3.260284656E0,3.902985750E-1,-6.488088030E-1,3.347049728E0
9.780858333E0,-3.045458538E0,2.586721958E-1,-6.142805560E-1,3.117542239E0
9.790936333E0,-2.779042436E0,1.242097709E-1,-5.929328102E-1,2.844305582E0
9.801014333E0,-2.400897737E0,-3.810484260E-3,-4.617337163E-1,2.444897235E0
9.811092333E0,-1.929256645E0,-1.052250311E-1,-3.310823603E-1,1.960285448E0
9.821169333E0,-1.329567377E0,-2.359832449E-1,-1.878062810E-1,1.363344674E0
9.831247333E0,-5.635131294E-1,-4.502443761E-1,-5.015156865E-2,7.230368075E-1
9.841325333E0,3.564983064E-1,-6.887922098E-1,2.125484817E-1,8.041782189E-1
9.851403333E0,1.349246766E0,-9.034939286E-1,4.561646819E-1,1.686669598E0
9.861481333E0,2.251446413E0,-1.034248342E0,7.320363164E-1,2.583516548E0
9.871559333E0,2.954731386E0,-1.088660338E0,1.092615541E0,3.333080799E0
9.881637333E0,3.494895998E0,-1.148374589E0,1.520172574E0,3.980450589E0
9.891715333E0,3.895561833E0,-1.099710845E0,1.894457818E0,4.469198626E0
9.901793333E0,3.967635782E0,-9.132387520E-1,2.161464196E0,4.609562473E0
9.911871333E0,3.817608508E0,-6.458296466E-1,2.249177694E0,4.477726091E0
9.921949333E0,3.677327957E0,-3.419267526E-1,2.049423943E0,4.223717948E0
9.932027333E0,3.737389387E0,-1.684079969E-1,1.951670777E0,4.219651585E0
9.942105333E0,4.182599310E0,-4.581208679E-1,1.917901352E0,4.624106110E0
9.952182333E0,4.631215237E0,-7.185853815E-1,1.890780796E0,5.053669117E0
9.962260333E0,4.625285575E0,-6.838201761E-1,1.769552813E0,4.999219324E0
9.972338333E0,4.373844193E0,-5.189842433E-1,1.587633655E0,4.681926771E0
9.982416333E0,3.930169748E0,-1.758053094E-1,1.479905139E0,4.203244101E0
9.992494333E0,3.131840039E0,4.438972235E-1,1.304388097E0,3.421534025E0
1.000257233E1,2.287089871E0,1.064518062E0,8.535273512E-1,2.663172491E0
1.001265033E1,1.649932814E0,1.406281092E0,6.332306510E-1,2.258514082E0
1.002272833E1,1.324392591E0,1.630444922E0,4.804130121E-1,2.154800000E0
1.003280633E1,1.131119894E0,1.657016424E0,2.724123486E-1,2.024683711E0
1.004288433E1,1.303550776E0,1.480098974E0,1.673888272E-1,1.979382888E0
1.005296233E1,1.614170074E0,1.136725328E0,2.633796430E-1,1.991747558E0
1.006304033E1,1.713991401E0,7.029095811E-1,3.309472165E-1,1.881853996E0
1.007311733E1,1.795309213E0,3.134090048E-1,2.980442762E-1,1.846670183E0
1.008319533E1,1.692516332E0,-8.862858653E-2,3.929614701E-1,1.739794608E0
1.009327333E1,1.280930822E0,-3.183463937E-1,4.261701467E-1,1.386992859E0
1.010335133E1,7.475279295E-1,-3.969250783E-1,2.755553732E-1,8.901001556E-1
1.011342933E1,6.354169250E-2,-4.284488797E-1,6.049755894E-2,4.373396207E-1
1.012350733E1,-6.408916730E-1,-3.603394885E-1,-2.340552717E-1,7.716012919E-1
1.013358533E1,-1.319748732E0,-3.122597346E-1,-5.548937488E-1,1.465315642E0
1.014366333E1,-1.906778778E0,-2.201356825E-1,-8.164075452E-1,2.085853856E0
1.015374133E1,-2.515606660E0,-1.934336413E-1,-1.131769082E0,2.765247673E0
1.016381933E1,-3.008645053E0,-1.279294771E-1,-1.364805037E0,3.306206859E0
1.017389733E1,-3.370581270E0,-3.375188291E-2,-1.508983196E0,3.693099995E0
1.018397533E1,-3.633174462E0,1.696818128E-2,-1.516491313E0,3.937002730E0
1.019405233E1,-3.802150224E0,1.231208731E-1,-1.439922609E0,4.067540067E0
1.020413033E1,-3.845010315E0,2.505036356E-1,-1.347216174E0,4.081892675E0
1.021420833E1,-3.815127534E0,3.613504721E-1,-1.246450668E0,4.029815323E0
1.022428633E1,-3.744799563E0,4.778346093E-1,-1.141978174E0,3.944104947E0
1.023436433E1,-3.773342162E0,5.517821530E-1,-1.075760211E0,3.962301685E0
1.024444233E1,-3.767134173E0,5.685847118E-1,-1.042100568E0,3.949754682E0
1.025452033E1,-3.684914719E0,4.967790033E-1,-9.443802917E-1,3.836305515E0
1.026459833E1,-3.571510895E0,4.875482963E-1,-9.450006813E-1,3.726448672E0
1.027467633E1,-3.431963001E0,4.261398143E-1,-9.546684676E-1,3.587667357E0
1.028475433E1,-3.242959941E0,2.812037835E-1,-9.282134713E-1,3.384884783E0
1.029483233E1,-2.976895841E0,1.188574489E-1,-9.685032722E-1,3.132735950E0
1.030491033E1,-2.636722961E0,-8.669008836E-2,-9.827011889E-1,2.815230856E0
1.031498833E1,-2.134478127E0,-2.984366244E-1,-1.097306616E0,2.418500176E0
1.032506533E1,-1.570520024E0,-4.851360275E-1,-1.119387456E0,1.988697662E0
1.033514333E1,-1.032344050E0,-5.878267291E-1,-1.036610763E0,1.576653537E0
1.034522133E1,-5.576822859E-1,-4.532888751E-1,-9.042549437E-1,1.155057288E0
1.035529933E1,-1.754731876E-1,-3.022402382E-1,-7.207836422E-1,8.010424833E-1
1.036537733E1,2.564512771E-1,-1.828973242E-1,-5.504640444E-1,6.342155413E-1
1.037545533E1,7.736667377E-1,-1.381234398E-1,-3.394491412E-1,8.560747777E-1
1.038553333E1,1.374244782E0,-2.099693479E-1,-1.458384754E-1,1.397821416E0
1.039561133E1,1.984714562E0,-3.164901951E-1,-2.358942211E-2,2.009928953E0
1.040568933E1,2.478493212E0,-4.660204563E-1,7.859534919E-3,2.521936843E0
1.041576733E1,2.952465590E0,-5.679020494E-1,8.783336520E-2,3.007869760E0
1.042584533E1,3.352541440E0,-5.635430232E-1,2.231348656E-1,3.406890667E0
1.043592333E1,3.511677507E0,-4.483568218E-1,4.319032685E-1,3.566432838E0
1.044600033E1,3.406993636E0,-1.562477618E-1,7.252241640E-1,3.486827940E0
1.045607833E1,3.366480033E0,7.795829505E-2,9.117791408E-1,3.488639636E0
1.046615633E1,3.626143185E0,-4.644750372E-2,1.020635585E0,3.767329130E0
1.047623433E1,3.801650287E0,-1.375956555E-1,8.249057423E-1,3.892550186E0
1.048631233E1,3.657649738E0,-6.705747709E-2,5.576363853E-1,3.700521132E0
1.049639033E1,3.297640763E0,2.106020898E-2,2.208807640E-1,3.305097040E0
1.050646833E1,2.861581147E0,2.382971343E-1,-2.309392905E-1,2.880757738E0
1.051654633E1,2.439690505E0,3.969606002E-1,-5.609561419E-1,2.534628034E0
1.052662433E1,1.955582564E0,5.660920438E-1,-7.678177679E-1,2.175846385E0
1.053670233E1,1.584300742E0,6.227422079E-1,-8.947426933E-1,1.923117570E0
1.054678033E1,1.428418651E0,3.810034025E-1,-8.511253881E-1,1.705859860E0
1.055685833E1,1.361448736E0,3.842643946E-3,-8.496562752E-1,1.604828094E0
1.056693633E1,1.439023161E0,-3.620973077E-1,-7.168357484E-1,1.647954978E0
1.057701333E1,1.667017209E0,-6.720953393E-1,-4.717182755E-1,1.858272491E0
1.058709133E1,1.875115521E0,-9.836689031E-1,-2.867112029E-1,2.136788722E0
1.059716933E1,1.922106085E0,-1.208230051E0,-1.267870773E-1,2.273848416E0
1.060724733E1,1.817958403E0,-1.122315157E0,1.258361739E-1,2.140186630E0
1.061732533E1,1.630834054E0,-1.009214657E0,3.539150065E-1,1.950228132E0
1.062740333E1,1.398037103E0,-8.560690628E-1,4.878482585E-1,1.710367769E0
1.063748133E1,1.018036498E0,-5.152067958E-1,5.359509628E-1,1.260587081E0
1.064755933E1,4.920934832E-1,-1.192203417E-1,5.065266041E-1,7.161973798E-1
1.065763733E1,-1.893737733E-2,1.881404494E-1,4.017120476E-1,4.439910158E-1
1.066771533E1,-5.463404417E-1,4.494038388E-1,2.448514245E-1,7.486013016E-1
1.067779333E1,-1.035933071E0,7.590007514E-1,-1.285276473E-2,1.284291502E0
1.068787133E1,-1.671471033E0,9.589078452E-1,-1.990930152E-1,1.937255197E0
1.069794933E1,-2.198049055E0,1.135269663E0,-3.277769293E-1,2.495534927E0
1.070802633E1,-2.562753929E0,1.229272572E0,-5.269898124E-1,2.890767548E0
1.071810033E1,-2.970700132E0,1.206073305E0,-7.109366387E-1,3.284068056E0
1.072817833E1,-3.235769620E0,1.207009445E0,-7.848208863E-1,3.541612720E0
1.073825633E1,-3.432940655E0,1.156931697E0,-7.805759539E-1,3.705788892E0
1.074833433E1,-3.609821852E0,1.102802998E0,-8.393619597E-1,3.866719121E0
1.075841233E1,-3.715851753E0,1.123676681E0,-8.967332317E-1,3.984260787E0
1.076849033E1,-3.731055683E0,1.062266737E0,-9.113524403E-1,3.984940451E0
1.077856833E1,-3.707479709E0,1.017818104E0,-9.036199361E-1,3.949416220E0
1.078864633E1,-3.643425801E0,9.742778362E-1,-8.493599676E-1,3.865899795E0
1.079872433E1,-3.486385376E0,9.021633216E-1,-7.419890083E-1,3.676864063E0
1.080880233E1,-3.253783137E0,8.091477153E-1,-5.730886759E-1,3.401507807E0
1.081888033E1,-2.991272390E0,7.252904568E-1,-3.513166501E-1,3.097931592E0
1.082895833E1,-2.638460754E0,5.699481364E-1,-1.363507833E-1,2.702759250E0
1.083903533E1,-2.223853403E0,3.609964963E-1,9.180406317E-2,2.254832680E0
1.084911333E1,-1.766144471E0,1.562768517E-1,3.020716922E-1,1.798592798E0
1.085919133E1,-1.326371289E0,-2.912074193E-2,4.807171404E-1,1.411098077E0
1.086926933E1,-9.638146824E-1,-1.270681822E-1,6.221981245E-1,1.154216432E0
1.087934733E1,-5.345278966E-1,-1.933783121E-1,7.662884286E-1,9.541033485E-1
1.088942533E1,-5.902588785E-2,-2.646971668E-1,9.242060821E-1,9.631747130E-1
1.089950333E1,3.321300352E-1,-3.640988827E-1,9.761410515E-1,1.093494266E0
1.090958133E1,8.051633495E-1,-4.795320560E-1,1.119621345E0,1.460065398E0
1.091965933E1,1.395477777E0,-6.103980048E-1,1.187062107E0,1.931077522E0
1.092973733E1,1.986151223E0,-8.282779777E-1,1.278474991E0,2.503065998E0
1.093981533E1,2.553660924E0,-9.641563059E-1,1.550836542E0,3.139406867E0
1.094989333E1,2.977295206E0,-1.010368167E0,1.733766099E0,3.590414386E0
1.095997133E1,3.188315957E0,-9.779628977E-1,1.830845082E0,3.804440009E0
1.097004833E1,3.317900196E0,-8.150420742E-1,1.933270174E0,3.925594077E0
1.098012633E1,3.354027802E0,-8.317050308E-1,1.952599314E0,3.969115750E0
1.099020433E1,3.630188289E0,-1.087883682E0,2.021536818E0,4.295156461E0
1.100028233E1,4.230131911E0,-1.561251164E0,2.123991730E0,4.984261435E0
1.101036033E1,4.541228342E0,-1.956347818E0,2.194856476E0,5.409939610E0
1.102043833E1,4.699657481E0,-2.047886564E0,2.152738397E0,5.560117123E0
1.103051633E1,4.687611047E0,-1.875789266E0,2.331639807E0,5.561369156E0
1.104059433E1,4.022113121E0,-1.431936920E0,2.291631403E0,4.845555880E0
1.105067233E1,2.891634666E0,-5.974468607E-1,2.043498375E0,3.590874462E0
1.106075033E1,1.698275254E0,1.199636690E-1,1.747278430E0,2.439572100E0
1.107082833E1,8.804181844E-1,5.618991517E-1,1.321665304E0,1.684537328E0
1.108090633E1,4.814404410E-1,7.401157066E-1,8.810946342E-1,1.247350757E0
1.109098433E1,3.360330516E-1,6.927779643E-1,5.435670342E-1,9.425097561E-1
1.110106233E1,3.430169660E-1,4.700671680E-1,1.806907312E-1,6.093216899E-1
1.111114033E1,2.913690948E-1,6.762392610E-2,-3.831088386E-2,3.015570736E-1
1.112121733E1,2.627738714E-1,-9.586817041E-2,-1.466155703E-1,3.158115563E-1
1.113129533E1,1.428316909E-1,-3.125729991E-1,-2.246137726E-1,4.105534296E-1
1.114137333E1,-8.711766601E-2,-5.723811628E-1,-2.455017811E-1,6.288726483E-1
1.115145133E1,-3.407494158E-1,-6.576892617E-1,-3.531572805E-1,8.206006301E-1
1.116152933E1,-7.282642776E-1,-7.064803295E-1,-4.315193257E-1,1.102584347E0
1.117160733E1,-1.096417254E0,-7.369739977E-1,-6.596140189E-1,1.476601545E0
1.118168533E1,-1.398070432E0,-7.866015096E-1,-7.578348897E-1,1.774163630E0
1.119176333E1,-1.834242314E0,-8.113979432E-1,-9.111992432E-1,2.202974251E0
1.120184133E1,-2.304438559E0,-7.544086406E-1,-1.028858671E0,2.634031062E0
1.121191933E1,-2.646938632E0,-7.318439430E-1,-1.003353116E0,2.923798412E0
1.122199733E1,-2.968225590E0,-7.053075242E-1,-1.049429760E0,3.226317510E0
1.123207533E1,-3.256482797E0,-7.667341326E-1,-1.102846853E0,3.522617296E0
1.124215333E1,-3.465175771E0,-7.785937478E-1,-1.109599217E0,3.720868416E0
1.125223033E1,-3.664583951E0,-7.121582682E-1,-1.073519558E0,3.884429066E0
1.126230833E1,-3.837337598E0,-6.373443134E-1,-1.047560990E0,4.028492478E0
1.127238633E1,-3.919613770E0,-4.930366391E-1,-1.035878838E0,4.084054627E0
1.128246433E1,-3.925024783E0,-3.080612876E-1,-1.059801405E0,4.077241754E0
1.129254233E1,-3.850552306E0,-8.826737478E-2,-1.160284783E0,4.022537130E0
1.130262033E1,-3.692803198E0,7.713778451E-2,-1.237723991E0,3.895472549E0
1.131269833E1,-3.472284815E0,2.048919913E-1,-1.284282446E0,3.707846271E0
1.132277633E1,-3.238200892E0,3.804407541E-1,-1.277528912E0,3.501822426E0
1.133285433E1,-2.995600500E0,4.273364469E-1,-1.226988065E0,3.265231769E0
1.134293233E1,-2.621223747E0,3.378956822E-1,-1.206546637E0,2.905295546E0
1.135301033E1,-2.115036719E0,1.341605625E-1,-1.155437733E0,2.413796954E0
1.136308833E1,-1.508921946E0,-1.128705579E-1,-1.086864219E0,1.863024164E0
1.137316633E1,-9.012915748E-1,-3.450450727E-1,-1.020447451E0,1.404526826E0
1.138324433E1,-5.005783778E-1,-4.586412701E-1,-8.707422119E-1,1.104138817E0
1.139332133E1,-1.720566595E-1,-5.339526768E-1,-7.431005640E-1,9.310786236E-1
1.140339933E1,2.730936223E-1,-6.062723556E-1,-6.564534527E-1,9.343861254E-1
1.141347733E1,8.598073339E-1,-5.390010166E-1,-5.008648914E-1,1.131660897E0
1.142355533E1,1.167315913E0,-4.453028941E-1,-4.069223553E-1,1.313966100E0
1.143363333E1,1.394177356E0,-2.334847297E-1,-4.459367323E-1,1.482263535E0
1.144371133E1,1.615652343E0,2.673551649E-2,-5.789860314E-1,1.716470829E0
1.145378933E1,2.033280950E0,2.061295545E-1,-6.320758259E-1,2.139214965E0
1.146386733E1,2.371090971E0,4.068755776E-1,-6.732390547E-1,2.498173523E0
1.147394533E1,2.646546283E0,7.136982787E-1,-6.499403854E-1,2.817089805E0
1.148402333E1,2.828398783E0,1.058863658E0,-5.431620415E-1,3.068559422E0
1.149410133E1,2.772723935E0,1.380510805E0,-3.698401907E-1,3.119389342E0
1.150417933E1,2.592441997E0,1.790999377E0,-1.921395063E-1,3.156794555E0
1.151425733E1,2.228730565E0,2.132462445E0,1.315623522E-4,3.084580365E0
1.152433533E1,2.293087944E0,2.103841056E0,8.198074088E-2,3.113056432E0
1.153441233E1,2.798754569E0,1.816276744E0,1.098697668E-1,3.338256988E0
1.154449033E1,2.784424213E0,1.751511960E0,-1.075490069E-1,3.291257987E0
1.155456833E1,2.573014038E0,1.862869697E0,-4.959785195E-1,3.215070674E0
1.156464633E1,2.829564718E0,1.539121792E0,-7.866329384E-1,3.315738796E0
1.157472433E1,3.138626318E0,1.211398657E0,-9.820194036E-1,3.504686003E0
1.158480233E1,3.191516722E0,1.159759557E0,-1.144367054E0,3.583349993E0
1.159488033E1,2.996134350E0,1.219649371E0,-1.128209150E0,3.425962860E0
1.160495833E1,2.748079675E0,1.184690038E0,-1.046028873E0,3.170111794E0
1.161503633E1,2.614172589E0,1.065188445E0,-7.038172151E-1,2.909275412E0
1.162511433E1,2.605111159E0,7.958770940E-1,-4.103559865E-1,2.754708067E0
1.163519233E1,2.701410708E0,4.505165640E-1,-2.738616541E-2,2.738856511E0
1.164527033E1,2.732996197E0,1.981869891E-1,4.278501248E-1,2.773373763E0
1.165534833E1,2.663264058E0,3.256606758E-3,8.439631337E-1,2.793789508E0
1.166542633E1,2.584047149E0,-1.558145562E-1,1.309568145E0,2.901128500E0
1.167550333E1,2.442579029E0,-2.424966046E-1,1.780955030E0,3.032622254E0
1.168558133E1,2.157943588E0,-2.374918266E-1,2.168696033E0,3.068609682E0
1.169565933E1,1.698633104E0,-1.734194992E-1,2.402132231E0,2.947145737E0
1.170573733E1,1.179300951E0,-2.043923467E-2,2.433377704E0,2.704162634E0
1.171581942E1,6.651535249E-1,1.043410783E-1,2.269321936E0,2.367094912E0
1.172589742E1,8.429696918E-2,2.171948254E-1,1.941752729E0,1.955679737E0
1.173597542E1,-5.092223167E-1,4.483045623E-1,1.488046802E0,1.635410539E0
1.174605342E1,-1.196025158E0,6.336740161E-1,1.167625670E0,1.787559409E0
1.175613142E1,-2.062344536E0,6.636057669E-1,6.642279106E-1,2.266017722E0
1.176620942E1,-2.697764384E0,8.834669226E-1,1.555131322E-1,2.842996801E0
1.177628742E1,-3.215316644E0,9.718021251E-1,-1.701386265E-1,3.363273353E0
1.178636542E1,-3.572551700E0,9.837500332E-1,-3.792433906E-1,3.724877894E0
1.179644342E1,-3.767768596E0,9.677203301E-1,-5.000619225E-1,3.922068938E0
1.180652142E1,-3.911446379E0,9.499379240E-1,-4.702940400E-1,4.052526535E0
1.181659942E1,-3.893713528E0,9.658707096E-1,-3.641384245E-1,4.028214003E0
1.182667642E1,-3.833771381E0,9.218391292E-1,-1.940940844E-1,3.947817485E0
1.183675442E1,-3.632219027E0,8.607449350E-1,-4.284196436E-2,3.733059381E0
1.184683242E1,-3.564374369E0,6.878410140E-1,1.221167600E-1,3.632189753E0
1.185691042E1,-3.491420998E0,5.098241414E-1,2.170901603E-1,3.535119429E0
1.186698842E1,-3.373158723E0,3.006854635E-1,2.230034494E-1,3.393868302E0
1.187706642E1,-3.206327720E0,-8.272567615E-3,1.900612597E-1,3.211966557E0
1.188714442E1,-2.931876374E0,-3.623314887E-1,1.418229000E-1,2.957582951E0
1.189722242E1,-2.640853434E0,-7.436421624E-1,1.048563641E-1,2.745561033E0
1.190730042E1,-2.346417475E0,-1.128523584E0,3.230060399E-2,2.603897804E0
1.191737842E1,-1.985084690E0,-1.465233013E0,-5.242803589E-2,2.467836645E0
1.192745642E1,-1.534660220E0,-1.750942003E0,-9.092741936E-2,2.330074609E0
1.193753442E1,-1.036527148E0,-1.986960770E0,-1.133875979E-1,2.243938140E0
1.194761242E1,-4.399842668E-1,-2.161481153E0,-1.467680365E-1,2.210684914E0
1.195769042E1,2.522558999E-1,-2.304443530E0,-1.689490105E-1,2.324357285E0
1.196776842E1,8.796861130E-1,-2.469872370E0,-4.316356122E-2,2.622209045E0
1.197784542E1,1.429406830E0,-2.467364499E0,1.123181422E-1,2.853718070E0
1.198792342E1,1.863915179E0,-2.487557859E0,2.240173566E-1,3.116457552E0
1.199800142E1,2.417409105E0,-2.477411478E0,4.312929654E-1,3.488186926E0
1.200807942E1,2.764983391E0,-2.551935995E0,5.854349256E-1,3.807918661E0
1.201815742E1,2.879378902E0,-2.486835435E0,7.461536877E-1,3.877101839E0
1.202823542E1,2.689611611E0,-2.332902220E0,7.648584920E-1,3.641627645E0
1.203831342E1,2.480053834E0,-2.154326208E0,8.069197069E-1,3.382736739E0
1.204839142E1,2.530662071E0,-2.329538025E0,7.931034672E-1,3.529874082E0
1.205846942E1,2.871682212E0,-2.659514531E0,8.066726620E-1,3.996285407E0
1.206854742E1,2.971858465E0,-2.823004142E0,8.227991366E-1,4.180704910E0
1.207862542E1,2.901236379E0,-2.859724072E0,6.395614314E-1,4.123618935E0
1.208870342E1,2.840236471E0,-2.643482050E0,5.245145398E-1,3.915361550E0
1.209878142E1,2.501519548E0,-2.120555322E0,4.098512256E-1,3.304895300E0
1.210885942E1,1.727151729E0,-1.351207776E0,3.259565449E-1,2.216994185E0
1.211893742E1,9.442791349E-1,-6.624762310E-1,1.760929924E-1,1.166853283E0
1.212901542E1,4.761510497E-1,-3.021208088E-1,3.369750381E-2,5.649179826E-1
1.213909242E1,3.775085217E-1,-4.197452992E-2,-1.370074256E-1,4.037890288E-1
1.214917042E1,6.630140287E-1,4.790492222E-2,-4.810375679E-1,8.205361817E-1
1.215924842E1,8.863069153E-1,-5.583126158E-2,-4.578035103E-1,9.991201789E-1
1.216932642E1,1.381842654E0,5.615665913E-2,-5.542605684E-1,1.489915256E0
1.217940442E1,1.713097946E0,9.855438128E-2,-3.479099160E-1,1.750845181E0
1.218948242E1,1.795800964E0,-1.703557044E-2,-1.267699742E-1,1.800350505E0
1.219956042E1,1.838617201E0,1.479360178E-2,1.594151254E-1,1.845574502E0
1.220963842E1,1.509983801E0,1.176643977E-1,4.239753212E-1,1.572784493E0
1.221971642E1,9.656062692E-1,2.684858702E-1,4.456845711E-1,1.096865929E0
1.222979442E1,4.433721435E-1,3.655250917E-1,3.724886870E-1,6.847884873E-1
1.223987242E1,-1.612931049E-1,4.460367197E-1,1.537308278E-1,4.985954155E-1
1.224995042E1,-8.908507866E-1,5.083357327E-1,-2.236093672E-1,1.049772113E0
1.226002842E1,-1.505584356E0,7.523010117E-1,-4.382708864E-1,1.739201666E0
1.227010642E1,-2.037138943E0,7.765970698E-1,-6.143627094E-1,2.265056207E0
1.228018442E1,-2.453871757E0,7.093904887E-1,-6.910805176E-1,2.646188532E0
1.229026142E1,-2.869817535E0,7.304324251E-1,-7.245045910E-1,3.048653984E0
1.230033942E1,-3.171674196E0,6.765383461E-1,-6.817691921E-1,3.313914690E0
1.231041742E1,-3.404039623E0,6.803166707E-1,-6.677637219E-1,3.534999988E0
1.232049542E1,-3.531194344E0,7.738962409E-1,-7.503508191E-1,3.692055692E0
1.233057342E1,-3.661062173E0,8.345185648E-1,-7.838395773E-1,3.835909534E0
1.234065142E1,-3.700837272E0,1.007366645E0,-8.831985354E-1,3.935863784E0
1.235072942E1,-3.786321811E0,1.145765854E0,-9.543147111E-1,4.069364670E0
1.236080742E1,-3.723977628E0,1.277393403E0,-1.008853446E0,4.064176246E0
1.237088542E1,-3.492737206E0,1.317780706E0,-1.081786351E0,3.886646484E0
1.238096342E1,-3.224551152E0,1.375051406E0,-1.161259367E0,3.692833576E0
1.239104142E1,-3.032064321E0,1.504757705E0,-1.129462793E0,3.568388432E0
1.240111942E1,-2.768818579E0,1.492575470E0,-1.020135210E0,3.306782984E0
1.241119742E1,-2.400193148E0,1.385273362E0,-8.534689522E-1,2.899710104E0
1.242127542E1,-1.980282957E0,1.237553253E0,-7.159794237E-1,2.442475215E0
1.243135342E1,-1.504959288E0,1.109146497E0,-5.750375529E-1,1.955959252E0
1.244143142E1,-9.863697320E-1,1.005227003E0,-4.109054786E-1,1.467054834E0
1.245150842E1,-4.746535778E-1,8.945020804E-1,-2.041461790E-1,1.033008061E0
1.246158642E1,-7.503848791E-2,9.380363551E-1,-8.533791974E-2,9.448944590E-1
1.247166442E1,8.672882617E-2,1.016180153E0,-3.352559566E-2,1.020425381E0
1.248174242E1,3.231118745E-1,1.044107624E0,3.901072249E-2,1.093656185E0
1.249182042E1,7.111699426E-1,9.742288658E-1,6.985653922E-2,1.208207145E0
1.250189842E1,1.166937599E0,8.617217124E-1,1.007625823E-1,1.454118553E0
1.251197642E1,1.723752158E0,7.284632291E-1,1.388536839E-1,1.876502204E0
1.252205442E1,2.163706604E0,5.952860221E-1,1.997883953E-1,2.252977390E0
1.253213242E1,2.561251779E0,5.224756157E-1,2.157336062E-1,2.622886279E0
1.254221042E1,2.772167864E0,5.668486735E-1,3.970936243E-1,2.857256627E0
1.255228842E1,2.696938757E0,7.850251003E-1,5.085346111E-1,2.854531576E0
1.256236642E1,2.775116615E0,9.013896619E-1,6.717450180E-1,2.994163810E0
1.257244442E1,3.368073399E0,6.414111981E-1,7.995798433E-1,3.520604305E0
1.258252242E1,4.037225835E0,4.027958290E-1,7.879572596E-1,4.133075557E0
1.259260042E1,4.545811974E0,2.480757254E-1,6.923806460E-1,4.604925519E0
1.260267842E1,5.010444594E0,1.280414513E-1,4.961350787E-1,5.036576184E0
1.261275542E1,5.058210499E0,3.137542829E-1,2.906374620E-1,5.076258990E0
1.262283342E1,4.407337044E0,1.013690701E0,1.003785664E-1,4.523523462E0
1.263291142E1,3.255066016E0,1.895338993E0,2.595856771E-2,3.766754374E0
1.264298942E1,2.267669513E0,2.534569180E0,5.216739625E-2,3.401336118E0
1.265306742E1,1.691714094E0,2.666500199E0,1.465509586E-1,3.161265106E0
1.266314542E1,1.561118286E0,2.210375278E0,6.635537267E-2,2.706889767E0
1.267322342E1,1.664153243E0,1.565052878E0,-8.246035874E-4,2.284468692E0
1.268330142E1,1.694045963E0,1.019565983E0,1.156753211E-1,1.980577517E0
1.269337942E1,1.778944026E0,5.081812200E-1,2.696287085E-1,1.869649604E0
1.270345742E1,1.919894668E0,-4.596759349E-2,5.341454887E-1,1.993343914E0
1.271353542E1,1.892793993E0,-4.753249843E-1,8.384193885E-1,2.124040963E0
1.272360983E1,1.745268157E0,-6.354829985E-1,1.119903108E0,2.168866651E0
1.273368783E1,1.501789513E0,-6.694497666E-1,1.328152351E0,2.113651674E0
1.274376583E1,1.182958385E0,-6.510979879E-1,1.450846085E0,1.981987258E0
1.275384383E1,7.388588476E-1,-4.375738983E-1,1.491651756E0,1.721164802E0
1.276392183E1,1.806351095E-1,-1.825038797E-1,1.439605105E0,1.462326765E0
1.277399983E1,-2.998276770E-1,3.057172850E-2,1.393121933E0,1.425349076E0
1.278407683E1,-8.566480833E-1,2.724757178E-1,1.258292157E0,1.546411364E0
1.279415483E1,-1.464552104E0,4.887724109E-1,1.117762515E0,1.906096633E0
1.280423283E1,-2.007987649E0,5.868553604E-1,9.762469592E-1,2.308564866E0
1.281431083E1,-2.337542571E0,7.296437819E-1,7.719851515E-1,2.567575976E0
1.282438883E1,-2.745081223E0,7.990139790E-1,7.713384495E-1,2.961225635E0
1.283446683E1,-3.041288304E0,7.327429524E-1,7.523214769E-1,3.217504372E0
1.284454483E1,-3.084881051E0,7.170415704E-1,7.047865373E-1,3.244589924E0
1.285462283E1,-3.152019365E0,6.158071178E-1,7.706443850E-1,3.302777203E0
1.286470083E1,-3.209015685E0,4.408193222E-1,8.659228637E-1,3.352898111E0
1.287477883E1,-3.215641165E0,1.736560191E-1,1.024721035E0,3.379431567E0
1.288485683E1,-3.313253413E0,-2.088216126E-1,1.303918419E0,3.566715280E0
1.289493483E1,-3.355035278E0,-6.734841261E-1,1.734180667E0,3.836303581E0
1.290501283E1,-3.157709876E0,-1.316352377E0,1.900130494E0,3.913363149E0
1.291509083E1,-3.078358482E0,-1.614285264E0,1.836146168E0,3.931111879E0
1.292516883E1,-3.074762444E0,-1.611322772E0,1.641592931E0,3.839967775E0
1.293524583E1,-3.015558801E0,-1.669231257E0,1.435852801E0,3.733845355E0
1.294532383E1,-2.895545284E0,-1.694068767E0,1.230223183E0,3.573163943E0
1.295540183E1,-2.690971674E0,-1.684174109E0,1.104962887E0,3.361355970E0
1.296547983E1,-2.546422656E0,-1.571034579E0,1.044172967E0,3.169024325E0
1.297555783E1,-2.248812243E0,-1.517938060E0,1.006915678E0,2.893988881E0
1.298563583E1,-1.863069672E0,-1.534024335E0,1.042793536E0,2.629006965E0
1.299571383E1,-1.371615289E0,-1.611030996E0,1.120075089E0,2.394017038E0
1.300579183E1,-6.935768402E-1,-1.796327506E0,1.233704615E0,2.286890557E0
1.301586983E1,9.764440835E-2,-1.980149348E0,1.270057924E0,2.354479348E0
1.302594783E1,7.557871217E-1,-2.142918290E0,1.324676181E0,2.630224317E0
1.303602583E1,1.376715816E0,-2.219319179E0,1.332147753E0,2.931781317E0
1.304610383E1,1.788018320E0,-2.344276224E0,1.509303769E0,3.312195405E0
1.305618183E1,2.081325767E0,-2.347341335E0,1.565243497E0,3.505982814E0
1.306625983E1,2.211734464E0,-2.110175052E0,1.510283178E0,3.409628039E0
1.307633783E1,1.862852740E0,-1.959083584E0,1.361625906E0,3.026921527E0
1.308641583E1,1.587595063E0,-1.869453954E0,8.946878026E-1,2.610705352E0
1.309649383E1,1.595852501E0,-2.095652615E0,3.751661271E-1,2.660686887E0
1.310657183E1,1.959290283E0,-2.457425987E0,-2.997414306E-2,3.143033462E0
1.311664883E1,2.264133702E0,-2.651089570E0,-4.366905302E-1,3.513584487E0
1.312672683E1,2.434201723E0,-2.723041897E0,-5.821387039E-1,3.698537640E0
1.313680483E1,2.604320031E0,-2.583689300E0,-5.049293641E-1,3.703091531E0
1.314688283E1,2.605319320E0,-2.264591831E0,-3.630786167E-1,3.471007203E0
1.315696083E1,2.496319034E0,-1.774520169E0,-2.693350321E-1,3.074584835E0
1.316703883E1,2.537465306E0,-1.244740358E0,-1.313478325E-1,2.829374664E0
1.317711683E1,2.493404197E0,-8.689942599E-1,-1.146587826E-2,2.640520210E0
1.318719483E1,2.496305586E0,-5.614255272E-1,1.309828931E-1,2.562010288E0
1.319727283E1,2.596361970E0,-4.889986981E-1,2.439323884E-1,2.653246731E0
1.320735083E1,2.666629715E0,-5.518673761E-1,3.919546527E-1,2.751199754E0
1.321742883E1,2.512339820E0,-6.282935545E-1,4.657773583E-1,2.631264470E0
1.322750683E1,2.257432208E0,-6.574987887E-1,5.333993840E-1,2.410978999E0
1.323758483E1,1.937030518E0,-7.178036088E-1,6.980704254E-1,2.180511767E0
1.324766283E1,1.325388372E0,-7.784428896E-1,4.562431808E-1,1.603366929E0
1.325774083E1,6.964834911E-1,-6.600972913E-1,2.458567071E-1,9.905873045E-1
1.326781883E1,1.582063597E-1,-3.111025706E-1,-3.230243124E-2,3.505103547E-1
1.327789683E1,-4.378646511E-1,8.239238486E-2,-4.033860324E-1,6.010276606E-1
1.328797383E1,-1.017486275E0,2.508037439E-1,-7.689949585E-1,1.299820789E0
1.329805183E1,-1.465149105E0,5.672464304E-1,-8.581801269E-1,1.790224439E0
1.330812983E1,-1.963703177E0,8.564524940E-1,-9.611008434E-1,2.348053635E0
1.331820783E1,-2.395382643E0,1.020256905E0,-1.020578429E0,2.796491103E0
1.332828583E1,-2.742897288E0,1.159623317E0,-1.021141954E0,3.148164967E0
1.333836383E1,-3.107703318E0,1.241962199E0,-1.034066201E0,3.502796444E0
1.334844183E1,-3.324135666E0,1.310797522E0,-9.476455231E-1,3.696768874E0
1.335851983E1,-3.380892250E0,1.277171062E0,-8.582158680E-1,3.714583800E0
1.336859783E1,-3.460377545E0,1.287306626E0,-8.439697118E-1,3.787301939E0
1.337867583E1,-3.505939634E0,1.314306729E0,-8.033280547E-1,3.829406072E0
1.338875383E1,-3.531763278E0,1.250153710E0,-8.533853370E-1,3.842460498E0
1.339883183E1,-3.520536039E0,1.190036951E0,-9.263318373E-1,3.829941595E0
1.340890983E1,-3.435363157E0,1.092226482E0,-1.022868783E0,3.747124131E0
1.341898783E1,-3.319487715E0,9.617792666E-1,-1.122527411E0,3.633742676E0
1.342906583E1,-3.156641005E0,8.045816977E-1,-1.184269915E0,3.466154840E0
1.343914383E1,-2.925223997E0,6.672648083E-1,-1.197971111E0,3.230682983E0
1.344922183E1,-2.628123461E0,5.527862661E-1,-1.212116695E0,2.946494946E0
1.345929983E1,-2.260347045E0,4.805996114E-1,-1.184220214E0,2.596636722E0
1.346937683E1,-1.780950791E0,4.309137735E-1,-1.085513951E0,2.129744806E0
1.347945483E1,-1.312964793E0,4.861029377E-1,-9.654084872E-1,1.700642867E0
1.348953283E1,-9.108698988E-1,5.225140612E-1,-8.710480213E-1,1.364342176E0
1.349961083E1,-4.577486926E-1,6.245614229E-1,-6.945521557E-1,1.040198795E0
1.350968883E1,2.020213008E-3,6.679118027E-1,-5.128376502E-1,8.420883047E-1
1.351976683E1,4.624346513E-1,6.213222847E-1,-4.209645899E-1,8.815318338E-1
1.352984483E1,9.633176690E-1,6.008386843E-1,-3.522807097E-1,1.188734518E0
1.353992283E1,1.429456531E0,5.391952904E-1,-3.290429977E-1,1.562800957E0
1.355000083E1,1.874848888E0,4.624787977E-1,-2.726929419E-1,1.950206766E0
1.356007883E1,2.164279631E0,4.344238570E-1,-3.106836176E-1,2.229204952E0
1.357015683E1,2.463721392E0,4.515733751E-1,-2.986127718E-1,2.522500980E0
1.358023483E1,2.632804742E0,5.003898051E-1,-1.762005812E-1,2.685721022E0
1.359031283E1,2.635878623E0,7.527663770E-1,-9.981197119E-2,2.743077790E0
1.360039083E1,2.442711176E0,9.610545042E-1,8.579809561E-2,2.626371064E0
1.361046883E1,2.599076248E0,9.146127015E-1,2.068464231E-1,2.763059749E0
1.362054683E1,2.977891037E0,7.038524446E-1,1.738492696E-1,3.064876321E0
1.363062483E1,2.990906940E0,5.623469022E-1,6.396970868E-2,3.043985953E0
1.364070283E1,3.167446659E0,4.884408738E-1,-1.886181669E-1,3.210431379E0
1.365077983E1,3.414141272E0,4.225101551E-1,-4.837769884E-1,3.474034489E0
1.366085783E1,3.443180299E0,4.613233879E-1,-7.186017537E-1,3.547491835E0
1.367093583E1,3.364103724E0,7.175961788E-1,-9.931877317E-1,3.580301665E0
1.368101383E1,3.114814702E0,1.031121397E0,-1.120623119E0,3.467142647E0
1.369109183E1,2.832492419E0,1.336427184E0,-1.099453859E0,3.319314645E0
1.370116983E1,2.599421818E0,1.288977760E0,-9.522477204E-1,3.053724476E0
1.371124783E1,2.604373240E0,1.038890446E0,-6.315494303E-1,2.874179538E0
1.372132542E1,2.525280878E0,7.415595303E-1,-3.091307433E-1,2.650002994E0
1.373140342E1,2.434070746E0,4.082923579E-1,-6.753431752E-2,2.469000593E0
1.374148142E1,2.459422519E0,1.989427418E-1,1.633542484E-1,2.472857042E0
1.375155942E1,2.248204132E0,-9.749939740E-3,4.114814293E-1,2.285570793E0
1.376163742E1,2.053729833E0,-6.179995313E-2,5.999915689E-1,2.140470823E0
1.377171542E1,1.734663647E0,3.336245835E-2,8.022420806E-1,1.911481984E0
1.378179342E1,1.445767339E0,2.137065227E-1,9.716012733E-1,1.754970858E0
1.379187142E1,1.169578201E0,3.592109759E-1,1.015730210E0,1.590174064E0
1.380194942E1,8.339766741E-1,4.269880991E-1,9.309645863E-1,1.320806947E0
1.381202742E1,4.320642132E-1,3.879988651E-1,7.308272584E-1,9.334511692E-1
1.382210542E1,-2.057167411E-2,3.779276209E-1,5.317813133E-1,6.527203425E-1
1.383218242E1,-7.866984272E-1,7.668877682E-1,2.622189707E-1,1.129499913E0
1.384226042E1,-1.783634663E0,1.319124542E0,4.454993606E-2,2.218879642E0
1.385233842E1,-2.502924634E0,1.636992487E0,-9.952838123E-2,2.992370636E0
1.386241642E1,-2.788665199E0,1.714485783E0,-9.501593873E-2,3.274926429E0
1.387249442E1,-3.039879125E0,1.759868655E0,-7.339615121E-2,3.513316065E0
1.388257242E1,-3.256402690E0,1.810273262E0,5.694837213E-2,3.726189861E0
1.389265042E1,-3.366881152E0,1.754367156E0,2.192581616E-1,3.802862994E0
1.390272842E1,-3.274184073E0,1.610168824E0,3.885954273E-1,3.669323015E0
1.391280642E1,-3.174564475E0,1.403065124E0,5.070623553E-1,3.507643593E0
1.392288442E1,-3.051561277E0,1.290193104E0,5.823417485E-1,3.363888581E0
1.393296242E1,-3.055446167E0,1.192743846E0,6.164117199E-1,3.337417051E0
1.394304042E1,-2.993959771E0,1.067670149E0,5.450493765E-1,3.225026121E0
1.395311842E1,-2.941788574E0,8.806438869E-1,4.912311651E-1,3.109816992E0
1.396319642E1,-2.951250538E0,6.548586246E-1,4.247766821E-1,3.052729072E0
1.397327442E1,-2.845595444E0,4.236543091E-1,3.032114607E-1,2.892893637E0
1.398335242E1,-2.652803974E0,1.510807966E-1,1.763759977E-1,2.662950022E0
1.399343042E1,-2.389344808E0,-1.681449453E-1,9.510774001E-2,2.397141385E0
1.400350842E1,-2.092694508E0,-5.049771651E-1,5.810363576E-2,2.153543191E0
1.401358642E1,-1.717673392E0,-8.703190197E-1,5.194783330E-2,1.926280264E0
1.402366342E1,-1.225525530E0,-1.183499983E0,2.560437262E-2,1.703889849E0
1.403374142E1,-7.730118495E-1,-1.419925278E0,3.285842836E-2,1.617038896E0
1.404381942E1,-2.303984231E-1,-1.579072747E0,5.592028543E-2,1.596772135E0
1.405389742E1,2.746326095E-1,-1.878914457E0,3.876294672E-2,1.899274907E0
1.406397542E1,9.576569796E-1,-2.174380696E0,1.260782486E-1,2.379271743E0
1.407405342E1,1.378069446E0,-2.490982280E0,2.025826335E-1,2.853963532E0
1.408413142E1,1.639208436E0,-2.683176751E0,1.841603959E-1,3.149659795E0
1.409420942E1,1.952619195E0,-2.924864978E0,1.966985804E-1,3.522250302E0
1.410428742E1,2.278271685E0,-3.107336113E0,2.246693212E-1,3.859603074E0
1.411436542E1,2.467280592E0,-3.260243726E0,2.198032683E-1,4.094505605E0
1.412444342E1,2.585693725E0,-3.306716519E0,2.081895286E-1,4.202800145E0
1.413452142E1,2.627437583E0,-3.396454614E0,9.584755898E-3,4.294115050E0
1.414459942E1,2.632293110E0,-3.486485948E0,-3.193434902E-1,4.380243321E0
1.415467742E1,2.704398050E0,-3.563041204E0,-6.964736970E-1,4.527041754E0
1.416475542E1,2.839378100E0,-3.398923309E0,-1.153956780E0,4.576719776E0
1.417483342E1,2.882682579E0,-3.023324780E0,-1.591956502E0,4.470422472E0
1.418491142E1,2.970690191E0,-2.709033431E0,-1.725304886E0,4.374990205E0
1.419498942E1,2.706380256E0,-2.269428063E0,-1.545416758E0,3.855270520E0
1.420506742E1,2.146802888E0,-1.732321983E0,-1.539209939E0,3.158934841E0
1.421514442E1,1.558877633E0,-1.217472306E0,-1.353485413E0,2.396718810E0
1.422522242E1,8.253023297E-1,-1.009146903E0,-1.119347257E0,1.718266477E0
1.423530042E1,6.184412885E-1,-9.058214859E-1,-1.147493414E0,1.587363640E0
1.424537842E1,6.847633320E-1,-8.909055311E-1,-1.205090827E0,1.647682429E0
1.425545642E1,8.207409167E-1,-9.729187971E-1,-1.211548930E0,1.757281266E0
1.426553442E1,1.109621437E0,-5.876166679E-1,-1.065331702E0,1.646658652E0
1.427561242E1,1.123286964E0,-5.812851566E-1,-5.350154082E-1,1.373283483E0
1.428569042E1,1.297877222E0,-8.020106770E-1,1.912542379E-1,1.537623034E0
1.429576842E1,1.431709464E0,-7.205632022E-1,8.284832150E-1,1.804269313E0
1.430584642E1,1.090064839E0,-5.370725318E-1,1.115911213E0,1.649832141E0
1.431592442E1,7.700642681E-1,-3.242974705E-1,1.213741563E0,1.473545523E0
1.432600242E1,4.067814374E-1,-2.230222336E-1,1.131310441E0,1.222731928E0
1.433608042E1,-1.361652803E-1,8.912691548E-3,9.128917929E-1,9.230340433E-1
1.434615842E1,-7.686299461E-1,1.772427743E-1,6.216618618E-1,1.004325876E0
1.435623642E1,-1.387964689E0,2.241546200E-1,4.071673536E-1,1.463720098E0
1.436631442E1,-1.891373119E0,2.347197347E-1,2.345083579E-1,1.920255139E0
1.437639242E1,-2.298953286E0,3.174573246E-1,1.489011008E-1,2.325540132E0
1.438647042E1,-2.636897208E0,3.290353232E-1,2.056447472E-1,2.665291896E0
1.439654842E1,-2.914822969E0,3.477738221E-1,1.681746930E-1,2.940309899E0
1.440662642E1,-3.134702252E0,3.578129067E-1,2.313416521E-1,3.163527658E0
1.441670342E1,-3.366908049E0,4.595651302E-1,2.311182153E-1,3.405977914E0
1.442678142E1,-3.560254421E0,6.137534295E-1,1.599295342E-1,3.616307823E0
1.443685942E1,-3.652236385E0,6.788417105E-1,9.927241936E-2,3.716115135E0
1.444693742E1,-3.643367913E0,7.287886266E-1,4.426751554E-2,3.715807076E0
1.445701542E1,-3.537677736E0,7.263344771E-1,-6.552981891E-2,3.612065849E0
1.446709342E1,-3.519023949E0,7.965237960E-1,-2.088050942E-1,3.614080696E0
1.447717142E1,-3.489000251E0,8.667959992E-1,-3.126062552E-1,3.608625878E0
1.448724942E1,-3.338960697E0,8.508686223E-1,-3.942947815E-1,3.468155752E0
1.449732742E1,-3.120686476E0,7.545154253E-1,-4.818410484E-1,3.246559472E0
1.450740542E1,-2.753066765E0,5.861226312E-1,-5.521123014E-1,2.868404495E0
1.451748342E1,-2.409918821E0,4.774821684E-1,-5.779844034E-1,2.523839123E0
1.452756142E1,-2.124542538E0,4.549369859E-1,-5.504424828E-1,2.241346824E0
1.453763942E1,-1.660026278E0,3.953083963E-1,-4.533633540E-1,1.765642745E0
1.454771742E1,-1.248154839E0,2.646378176E-1,-4.055934294E-1,1.338816532E0
1.455779542E1,-7.770698172E-1,1.707525842E-1,-4.029901028E-1,8.918491850E-1
1.456787342E1,-2.372221237E-1,5.371062264E-2,-3.507883541E-1,4.268625497E-1
1.457795142E1,1.601593298E-1,-5.290166035E-2,-2.259345125E-1,2.819503511E-1
1.458802942E1,7.049964523E-1,2.685509205E-2,-2.175403959E-1,7.382851872E-1
1.459810742E1,1.309816067E0,-8.503649577E-2,-1.694933132E-1,1.323471692E0
1.460818542E1,1.870377522E0,-1.335194153E-1,-1.824098857E-1,1.883988555E0
1.461826242E1,2.312066252E0,-6.485366151E-2,-1.549829359E-1,2.318162217E0
1.462834042E1,2.578543750E0,5.339779660E-2,-1.192838571E-1,2.581853566E0
1.463841842E1,2.791732648E0,2.258362792E-1,4.984678254E-3,2.800856664E0
1.464849642E1,2.735119321E0,5.893467128E-1,2.269257617E-1,2.807080788E0
1.465857442E1,2.817261007E0,9.482561186E-1,3.847630160E-1,2.997364146E0
1.466865242E1,3.333157336E0,9.075764546E-1,4.005525447E-1,3.477653690E0
1.467873042E1,3.776849906E0,7.383630037E-1,3.524865317E-1,3.864456223E0
1.468880842E1,3.930217695E0,7.986799568E-1,2.070136535E-1,4.015887879E0
1.469888642E1,3.949867263E0,8.943874750E-1,-1.129448175E-2,4.049877519E0
1.470896442E1,3.958801809E0,1.036062002E0,-3.499593651E-1,4.107068029E0
1.471904658E1,3.750490658E0,1.328033068E0,-6.581438828E-1,4.032741670E0
1.472912458E1,3.453560861E0,1.724563459E0,-9.584003069E-1,3.977402783E0
1.473920258E1,3.190205777E0,2.145674375E0,-1.125700110E0,4.006061927E0
1.474928058E1,3.015409697E0,2.392869218E0,-1.127436879E0,4.011188433E0
1.475935858E1,3.152174317E0,2.459097706E0,-1.042809981E0,4.131684536E0
1.476943658E1,3.384464314E0,2.361229349E0,-7.010038273E-1,4.185858227E0
1.477951458E1,3.549096764E0,2.139506148E0,-3.070507425E-1,4.155460811E0
1.478959258E1,3.679510138E0,1.988463796E0,4.597548723E-2,4.182690148E0
1.479967058E1,3.814279103E0,1.839968200E0,4.085225920E-1,4.254538608E0
1.480974858E1,3.854328437E0,1.758921113E0,8.000118063E-1,4.311573967E0
1.481982658E1,3.632862221E0,1.693053106E0,1.152977956E0,4.170548514E0
1.482990358E1,3.329435583E0,1.684682525E0,1.482918940E0,4.015264012E0
1.483998158E1,2.795885341E0,1.821936264E0,1.672256899E0,3.732675947E0
1.485005958E1,2.133197587E0,1.967260331E0,1.672866763E0,3.349496732E0
1.486013758E1,1.371498930E0,2.049186546E0,1.610366460E0,2.945072996E0
1.487021558E1,6.876588732E-1,2.166309930E0,1.419284130E0,2.679578490E0
1.488029358E1,-1.049721390E-1,2.198696342E0,1.142047244E0,2.479829966E0
1.489037158E1,-1.101305526E0,2.180943026E0,8.016970470E-1,2.571401272E0
1.490044958E1,-1.796185126E0,2.094239343E0,5.522537309E-1,2.813734816E0
1.491052758E1,-2.372027695E0,1.862964568E0,3.783886738E-1,3.039791170E0
1.492060558E1,-2.858343544E0,1.570157935E0,1.568679321E-1,3.264985652E0
1.493068358E1,-3.149171771E0,1.302811834E0,6.614852741E-2,3.408662076E0
1.494076158E1,-3.502046558E0,9.163294441E-1,-4.662277400E-2,3.620243559E0
1.495083958E1,-3.750087200E0,6.001919091E-1,-1.068415669E-1,3.799315657E0
1.496091758E1,-3.945081317E0,1.882171941E-1,-2.368888324E-1,3.956666353E0
1.497099558E1,-4.120363886E0,-1.468387878E-1,-2.410707611E-1,4.130021222E0
1.498107358E1,-4.211277564E0,-4.078738435E-1,-2.303054523E-1,4.237246794E0
1.499115158E1,-4.278900613E0,-5.968390061E-1,-2.205313198E-1,4.325949759E0
1.500122958E1,-4.275739024E0,-7.975699360E-1,-1.514355033E-1,4.352125310E0
1.501130758E1,-4.145738463E0,-1.057030117E0,-1.047862706E-1,4.279654219E0
1.502138558E1,-3.958880162E0,-1.330073161E0,-2.269421339E-2,4.176402971E0
1.503146358E1,-3.788787582E0,-1.557678369E0,6.329552472E-2,4.096984204E0
1.504154158E1,-3.560426329E0,-1.804178855E0,1.269676101E-1,3.993471893E0
1.505161858E1,-3.231057934E0,-2.092626096E0,1.967032582E-1,3.854544269E0
1.506169658E1,-2.960065216E0,-2.420323065E0,2.295197327E-1,3.830486800E0
1.507177458E1,-2.611468252E0,-2.628257947E0,2.821047664E-1,3.715789198E0
1.508185258E1,-2.207122765E0,-2.696783514E0,4.070055319E-1,3.508516171E0
1.509193058E1,-1.784268501E0,-2.714873922E0,5.825902551E-1,3.300540244E0
1.510200858E1,-1.110057054E0,-2.800153516E0,7.523518825E-1,3.104693178E0
1.511208658E1,-1.444320738E-1,-3.000128291E0,8.482836413E-1,3.121092040E0
1.512216458E1,7.733164895E-1,-3.213857179E0,9.371875586E-1,3.435872070E0
1.513224258E1,1.541230152E0,-3.280768330E0,1.103540844E0,3.789014860E0
1.514232058E1,2.368936856E0,-3.312516372E0,1.241611220E0,4.257490454E0
1.515239858E1,3.015893846E0,-3.203985910E0,1.572577075E0,4.672701580E0
1.516247658E1,3.438317755E0,-2.975655062E0,1.921470492E0,4.936456309E0
1.517255458E1,3.348901548E0,-2.669195181E0,2.133658932E0,4.784584092E0
1.518263258E1,3.056750096E0,-2.262831819E0,2.200007873E0,4.393650377E0
1.519271058E1,3.030682624E0,-2.157815534E0,2.322073177E0,4.385570531E0
1.520278858E1,3.365718141E0,-2.590177955E0,2.292189812E0,4.826097241E0
1.521286658E1,3.668600988E0,-3.006183667E0,2.214746949E0,5.234584749E0
1.522294458E1,3.565359625E0,-3.144151937E0,2.037398559E0,5.171892646E0
1.523302258E1,3.262249905E0,-3.189772498E0,1.859676533E0,4.926999071E0
1.524310058E1,2.844136564E0,-3.017149243E0,1.736032480E0,4.495120813E0
1.525317858E1,2.305202206E0,-2.566467203E0,1.483200045E0,3.755075697E0
1.526325658E1,1.814780442E0,-2.073981957E0,1.169329695E0,2.993686881E0
1.527333358E1,1.384367482E0,-1.607595757E0,9.053571439E-1,2.306622856E0
1.528341158E1,1.075968956E0,-1.198087763E0,6.117783862E-1,1.722613212E0
1.529348958E1,9.620675343E-1,-9.054347657E-1,3.594307581E-1,1.369151754E0
1.530356758E1,1.121860828E0,-7.593014444E-1,2.102786656E-1,1.370885670E0
1.531364558E1,1.362382536E0,-6.403879353E-1,5.714191496E-2,1.506468745E0
1.532372358E1,1.494260638E0,-3.747971678E-1,-1.800655176E-1,1.551035577E0
1.533380158E1,1.727783228E0,-3.554444920E-1,-2.180806786E-1,1.777395525E0
1.534387958E1,1.516510463E0,-2.490823236E-1,-3.700528101E-1,1.580754589E0
1.535395758E1,9.540258586E-1,2.317821667E-2,-4.392685676E-1,1.050551971E0
1.536403558E1,3.481718713E-1,9.771223605E-2,-4.503163699E-1,5.775432157E-1
1.537411358E1,-2.427939355E-1,1.190148121E-1,-5.697848529E-1,6.306886706E-1
1.538419158E1,-8.720233369E-1,1.001038934E-1,-8.202358635E-1,1.201346062E0
1.539426958E1,-1.530592312E0,1.108023977E-1,-1.152545408E0,1.919205803E0
1.540434758E1,-2.136984828E0,3.993429020E-2,-1.522561162E0,2.624212528E0
1.541442558E1,-2.608491434E0,8.289685339E-2,-1.800213858E0,3.170468323E0
1.542450358E1,-3.106044463E0,-3.255846620E-2,-2.049596875E0,3.721480835E0
1.543458158E1,-3.469305074E0,-4.430113703E-2,-2.153078120E0,4.083354709E0
1.544465958E1,-3.676774811E0,2.159712955E-2,-2.197052105E0,4.283243794E0
1.545473758E1,-3.799865717E0,1.650721604E-1,-2.101820696E0,4.345558482E0
1.546481558E1,-3.929877387E0,3.732796691E-1,-1.932045182E0,4.395005412E0
1.547489358E1,-3.885523333E0,5.719755122E-1,-1.672044060E0,4.268510150E0
1.548497158E1,-3.805980735E0,7.530016543E-1,-1.450842138E0,4.142154482E0
1.549504958E1,-3.738060647E0,9.975148174E-1,-1.309868254E0,4.084591541E0
1.550512658E1,-3.612385857E0,1.168298830E0,-1.188712630E0,3.978352856E0
1.551520458E1,-3.440979992E0,1.218723172E0,-1.129279776E0,3.821112703E0
1.552528258E1,-3.260161865E0,1.286577478E0,-1.147092295E0,3.687784935E0
1.553536058E1,-3.053553423E0,1.362786286E0,-1.184389198E0,3.547414938E0
1.554543858E1,-2.837487110E0,1.350250587E0,-1.193599294E0,3.361426635E0
1.555551658E1,-2.527630874E0,1.359250329E0,-1.260657941E0,3.134603282E0
1.556559458E1,-2.172559288E0,1.322040549E0,-1.155481149E0,2.793374618E0
1.557567258E1,-1.714795393E0,1.333642302E0,-1.086946519E0,2.429110488E0
1.558575058E1,-1.216735995E0,1.309757303E0,-9.292057438E-1,2.014778893E0
1.559582858E1,-8.046277446E-1,1.271620593E0,-6.937275521E-1,1.657016191E0
1.560590658E1,-3.209998602E-1,1.328651264E0,-5.100134450E-1,1.458927280E0
1.561598458E1,1.177699399E-1,1.377946070E0,-3.623221332E-1,1.429644172E0
1.562606258E1,5.334233576E-1,1.328817764E0,-9.719417274E-2,1.435180767E0
1.563614058E1,1.175005002E0,1.204573787E0,-2.137756661E-2,1.682881981E0
1.564621858E1,1.761312332E0,1.103138921E0,8.553014696E-2,2.080012504E0
1.565629658E1,2.248054444E0,1.076625014E0,1.430508153E-1,2.496664522E0
1.566637458E1,2.628833898E0,1.108913631E0,1.863367295E-1,2.859226902E0
1.567645258E1,2.880902687E0,1.145268402E0,2.831800693E-1,3.113106319E0
1.568653058E1,3.022345079E0,1.242055024E0,3.902558903E-1,3.290831220E0
1.569660858E1,3.000382352E0,1.431282617E0,6.184586839E-1,3.381324494E0
1.570668658E1,3.054228192E0,1.517636636E0,7.965351981E-1,3.502284844E0
1.571676458E1,3.696296909E0,1.258845304E0,9.336888041E-1,4.014857049E0
1.572684217E1,4.729376539E0,7.478381243E-1,9.138421847E-1,4.874563760E0
1.573692017E1,5.912177634E0,1.036228940E-1,7.427454919E-1,5.959551404E0
1.574699717E1,6.996448467E0,-1.611700210E-1,5.704397410E-1,7.021514681E0
1.575707517E1,7.120351551E0,2.640143582E-1,3.238335671E-1,7.132599664E0
1.576715317E1,6.386336537E0,1.228631571E0,1.385323794E-1,6.504922837E0
1.577723117E1,5.454088048E0,2.271534230E0,6.667243794E-2,5.908586076E0
1.578730917E1,4.734578807E0,3.135519108E0,7.077645242E-2,5.679148339E0
1.579738717E1,4.231063372E0,3.744222151E0,2.807949901E-2,5.649945596E0
1.580746517E1,4.020679384E0,3.881809182E0,1.888416767E-2,5.588797889E0
1.581754317E1,3.988491631E0,3.740644239E0,1.426041611E-1,5.469992757E0
1.582762117E1,4.011985159E0,3.605126538E0,2.349592513E-1,5.398904345E0
1.583769917E1,3.978411616E0,3.419077492E0,4.127667935E-1,5.261960310E0
1.584777717E1,3.894659607E0,3.139646365E0,6.607809770E-1,5.046026581E0
1.585785517E1,3.752740667E0,2.884031824E0,1.022138904E0,4.842052252E0
1.586793317E1,3.468130953E0,2.604703608E0,1.394826981E0,4.556089936E0
1.587801117E1,3.100324717E0,2.405933652E0,1.650590480E0,4.257344127E0
1.588808917E1,2.627064530E0,2.255772184E0,1.650028709E0,3.835696929E0
1.589816717E1,1.973684374E0,2.147943387E0,1.577919676E0,3.316462167E0
1.590824517E1,1.208421839E0,2.090749140E0,1.413821661E0,2.798286440E0
1.591832317E1,3.665373909E-1,2.060847648E0,1.135478994E0,2.381334759E0
1.592840117E1,-3.997250175E-1,2.006683428E0,8.561539205E-1,2.218007666E0
1.593847917E1,-1.179300367E0,1.886854683E0,5.840877271E-1,2.300462654E0
1.594855717E1,-1.936135309E0,1.789722199E0,3.089370543E-1,2.654650182E0
1.595863517E1,-2.492768020E0,1.660291157E0,1.258917224E-1,2.997717107E0
1.596871317E1,-2.930649628E0,1.438904316E0,5.601259835E-2,3.265316261E0
1.597879117E1,-3.283508627E0,1.227554806E0,-1.934726715E-2,3.505523360E0
1.598886817E1,-3.435395901E0,9.907669844E-1,7.857948862E-2,3.576274451E0
1.599894617E1,-3.579455507E0,7.590128843E-1,1.994075223E-1,3.664473448E0
1.600902417E1,-3.623954573E0,5.718965748E-1,3.320464200E-1,3.683797940E0
1.601910217E1,-3.631455966E0,3.161525184E-1,4.920472902E-1,3.678251675E0
1.602918017E1,-3.546028145E0,-1.727296740E-2,5.666020672E-1,3.591051637E0
1.603925817E1,-3.466153425E0,-3.241802339E-1,7.057611950E-1,3.552099556E0
1.604933617E1,-3.423477522E0,-5.595126106E-1,7.728364331E-1,3.553945533E0
1.605941417E1,-3.299058713E0,-9.173986074E-1,8.022286320E-1,3.516955981E0
1.606949217E1,-3.087245080E0,-1.307545009E0,8.080114552E-1,3.448715506E0
1.607957017E1,-2.779810175E0,-1.652755704E0,8.080676615E-1,3.333454570E0
1.608964817E1,-2.571885526E0,-2.123121080E0,7.949780846E-1,3.428444025E0
1.609972617E1,-2.506734095E0,-2.271201524E0,8.357237490E-1,3.484322943E0
1.610980417E1,-2.085073248E0,-2.495900373E0,9.984295412E-1,3.402045072E0
1.611988217E1,-1.663229967E0,-2.931106296E0,1.089968287E0,3.541997869E0
1.612996017E1,-1.299374110E0,-3.110674873E0,1.134963781E0,3.557079424E0
1.614003817E1,-7.033130389E-1,-3.152673961E0,1.328728886E0,3.492781526E0
1.615011617E1,-1.303484702E-1,-3.447781766E0,1.422435780E0,3.731958383E0
1.616019417E1,7.198138815E-1,-3.748373381E0,1.608618727E0,4.141990975E0
1.617027217E1,1.626563247E0,-4.061284496E0,1.708200903E0,4.696561517E0
1.618035017E1,2.356978716E0,-4.285833364E0,1.863174337E0,5.234036196E0
1.619042817E1,2.638976478E0,-4.216937669E0,1.990288128E0,5.357985348E0
1.620050617E1,2.500919039E0,-3.937854744E0,2.055227889E0,5.097573707E0
1.621058417E1,2.200966231E0,-3.742636386E0,2.107697879E0,4.826382684E0
1.622066217E1,2.067474883E0,-3.694260324E0,2.147788728E0,4.747105240E0
1.623073917E1,2.114760146E0,-3.970344797E0,1.989235629E0,4.918628536E0
1.624081717E1,2.615936694E0,-4.529443279E0,1.870218916E0,5.554880737E0
1.625089517E1,2.974616012E0,-5.292955742E0,1.725535558E0,6.311988107E0
1.626097317E1,3.013892344E0,-5.602867527E0,1.541217288E0,6.546069226E0
1.627105117E1,2.974235358E0,-5.651142139E0,1.491810070E0,6.557970778E0
1.628112917E1,2.573008191E0,-5.434378254E0,1.538742746E0,6.206493970E0
1.629120717E1,2.056933522E0,-4.817204057E0,1.621494296E0,5.483217504E0
1.630128517E1,1.576316369E0,-4.201803028E0,1.673583632E0,4.789655954E0
1.631136317E1,1.358691773E0,-3.707717691E0,1.682668451E0,4.292387090E0
1.632144117E1,1.276859990E0,-3.284078439E0,1.574292063E0,3.859266527E0
1.633151917E1,1.325929239E0,-2.961197237E0,1.228489484E0,3.469288664E0
1.634159717E1,1.471489826E0,-2.699784305E0,9.626307674E-1,3.221921103E0
1.635167517E1,1.553676535E0,-2.361687771E0,7.738333833E-1,2.930921017E0
1.636175317E1,1.613115236E0,-1.967934222E0,4.939855691E-1,2.592089430E0
1.637183117E1,1.648620699E0,-1.572259717E0,2.454585117E-1,2.291331645E0
1.638190917E1,1.458680915E0,-1.163647736E0,-2.054441147E-1,1.877240888E0
1.639198717E1,1.328453482E0,-7.108791898E-1,-3.668683434E-1,1.550719271E0
1.640206517E1,8.519282109E-1,-4.455155866E-1,-5.764651506E-1,1.120971848E0
1.641214317E1,2.478599632E-1,-2.040766702E-1,-8.764077254E-1,9.333661392E-1
1.642222117E1,-3.140130222E-1,1.702190258E-1,-1.059885020E0,1.118452033E0
1.643229917E1,-9.545772511E-1,3.261356159E-1,-1.268165181E0,1.620439784E0
1.644237717E1,-1.573531340E0,4.004705375E-1,-1.516157291E0,2.221510851E0
1.645245517E1,-2.170304017E0,4.905260640E-1,-1.769336612E0,2.842778112E0
1.646253317E1,-2.697777833E0,5.374634913E-1,-2.083024237E0,3.450487243E0
1.647261117E1,-3.076889661E0,6.389249620E-1,-2.374386754E0,3.938678401E0
1.648268817E1,-3.355631694E0,7.339194122E-1,-2.577973062E0,4.294746427E0
1.649276617E1,-3.638586060E0,7.692894389E-1,-2.677064071E0,4.582334209E0
1.650284417E1,-3.850402032E0,9.837286909E-1,-2.710426530E0,4.810377316E0
1.651292217E1,-3.955253134E0,1.090193478E0,-2.670701716E0,4.895426113E0
1.652300017E1,-3.848451986E0,1.164995958E0,-2.558466166E0,4.765873203E0
1.653307817E1,-3.695710434E0,1.158511030E0,-2.379349286E0,4.545517181E0
1.654315617E1,-3.679681461E0,1.199299160E0,-2.246196929E0,4.474793267E0
