"Time (s)","Linear Acceleration x (m/s^2)","Linear Acceleration y (m/s^2)","Linear Acceleration z (m/s^2)","Absolute acceleration (m/s^2)"
1.462258335E-2,-1.363233891E0,-8.723999707E-1,1.573914918E0,2.257586436E0
2.465058333E-2,-1.434385734E0,-1.147357320E0,1.013725346E0,2.097982443E0
3.467858338E-2,-1.919339475E0,-1.416059245E0,4.559009725E-1,2.428360249E0
4.470658337E-2,-2.437256894E0,-1.193268049E0,-3.439191914E-1,2.735395805E0
5.473458336E-2,-2.368999422E0,-5.587485257E-1,-1.866276870E0,3.067139959E0
6.476358336E-2,-2.091098511E0,1.305396742E-1,-3.682712073E0,4.236992070E0
7.479158335E-2,-1.602138989E0,8.986356964E-1,-5.234844359E0,5.547791535E0
8.481958334E-2,-1.357967888E0,1.343944218E0,-5.708150738E0,6.019405925E0
9.484758339E-2,-1.172394513E0,1.510230553E0,-5.305576957E0,5.639543604E0
1.048755834E-1,-9.452057724E-1,1.454384089E0,-4.421473272E0,4.749533970E0
1.149035834E-1,-8.621900743E-1,9.200565324E-1,-3.187311990E0,3.427657140E0
1.249325834E-1,-6.447085892E-1,5.128821621E-1,-2.264114991E0,2.409338907E0
1.349605834E-1,-8.333937067E-1,1.244236328E-1,-1.657259375E0,1.859175879E0
1.449885833E-1,-7.248999359E-1,3.799251759E-1,-1.884951122E0,2.054960776E0
1.550165833E-1,-7.302685569E-1,7.021852572E-1,-2.131206610E0,2.359745307E0
1.650445834E-1,-8.142854445E-1,8.713328538E-1,-2.184232669E0,2.488604846E0
1.750725834E-1,-9.140673025E-1,1.014080930E0,-2.252117089E0,2.633611693E0
1.851005834E-1,-8.678911096E-1,1.161337866E0,-1.832008678E0,2.336278325E0
1.951295834E-1,-5.607596755E-1,1.035912606E0,-9.368654501E-1,1.505085782E0
2.051575833E-1,-4.024411954E-1,4.422572257E-1,4.127660626E-1,7.265852956E-1
2.151855833E-1,-6.188213575E-1,2.274391472E-2,1.727627692E0,1.835253280E0
2.252135834E-1,-5.341446117E-1,3.516193897E-2,2.035423955E0,2.104637143E0
2.352415834E-1,-7.825340402E-1,3.725778571E-1,1.555343576E0,1.780524480E0
2.452695834E-1,-8.451160584E-1,9.612367912E-1,3.549464554E-1,1.328226000E0
2.552985834E-1,-7.647185974E-1,1.417336569E0,-7.641422081E-1,1.782568595E0
2.653265834E-1,-7.199977764E-1,1.586396384E0,-1.254392649E0,2.146753643E0
2.753545833E-1,-5.453192255E-1,1.569090088E0,-1.122819187E0,2.005028600E0
2.853825834E-1,-1.671315497E-1,1.146654485E0,-1.645090735E-1,1.170389977E0
2.954105834E-1,8.299684078E-3,4.314174380E-1,1.550900862E0,1.609808490E0
3.054385834E-1,4.342405468E-2,-2.664271387E-1,3.504952040E0,3.515331829E0
3.154665834E-1,2.910420893E-1,-4.088688203E-1,4.425669819E0,4.454035536E0
3.254955834E-1,2.441066355E-1,-1.742185944E-1,4.580380713E0,4.590188193E0
3.355235833E-1,4.588526469E-1,1.397594176E-1,4.085768250E0,4.113827978E0
3.455515833E-1,8.513949448E-1,5.396163630E-1,3.221474347E0,3.375493466E0
3.555795834E-1,1.189317963E0,9.973043177E-1,2.577774256E0,3.008988740E0
3.656075834E-1,1.875693226E0,8.926261474E-1,2.732937140E0,3.432776126E0
3.756355834E-1,1.483738866E0,-7.719859555E-2,4.069690161E0,4.332414875E0
3.856645834E-1,7.165300852E-1,-4.616289780E-1,4.915083523E0,4.988442915E0
3.956925833E-1,3.927877347E-1,-1.276231561E-1,4.826172516E0,4.843811622E0
4.057205833E-1,2.559077784E-1,3.319433628E-1,3.895876413E0,3.918357846E0
4.157485834E-1,4.243996829E-2,6.295746063E-1,2.885044270E0,2.953243263E0
4.257765834E-1,-3.513010088E-1,7.947025345E-1,1.853605953E0,2.047149127E0
4.358045834E-1,-3.735207206E-1,7.376758828E-1,9.530236459E-1,1.261720059E0
4.458325834E-1,-1.435089447E-1,3.467119677E-1,2.294032270E-1,4.398066010E-1
4.558615834E-1,1.226254678E-1,-3.274347210E-1,-3.025600809E-1,4.623776643E-1
4.658895833E-1,2.363381709E-1,-9.176847555E-1,-3.020373398E-1,9.945992139E-1
4.759175834E-1,3.073279005E-1,-1.479486770E0,3.239643985E-1,1.545407543E0
4.859455834E-1,4.522371072E-1,-1.594835524E0,1.117408174E0,1.999154766E0
4.959735834E-1,5.324265535E-1,-1.399930724E0,1.725426216E0,2.284815023E0
5.060015834E-1,7.211210266E-1,-1.135421764E0,1.747544478E0,2.205245977E0
5.160305834E-1,1.025357504E0,-8.514428920E-1,1.214578958E0,1.803195789E0
5.260585833E-1,1.192923648E0,-6.077342692E-1,6.188003075E-1,1.474897147E0
5.360865833E-1,1.281082265E0,-4.376847396E-1,2.700092161E-1,1.380450896E0
5.461145834E-1,1.222876887E0,-4.125510678E-1,-6.148054898E-2,1.292055000E0
5.561425834E-1,1.031686969E0,-2.916353259E-1,-2.987383407E-1,1.112957215E0
5.661705834E-1,8.132212512E-1,-1.369279034E-1,-7.245793623E-1,1.097767419E0
5.761985834E-1,5.515301380E-1,5.344603613E-2,-1.361988434E0,1.470392623E0
5.862275833E-1,3.256953205E-1,1.625146979E-1,-2.139641218E0,2.170380845E0
5.962555833E-1,1.425296822E-1,1.593472246E-1,-2.923268688E0,2.931075923E0
6.062835834E-1,6.855144069E-2,-3.078504223E-2,-3.297319166E0,3.298175359E0
6.163115834E-1,2.275291944E-1,-3.137601301E-1,-3.619985483E0,3.640674367E0
6.263395834E-1,4.124222463E-1,-3.077346475E-1,-3.902727596E0,3.936505482E0
6.363675834E-1,7.061082273E-1,-4.118541162E-2,-3.961458199E0,4.024106874E0
6.463955833E-1,6.717693570E-1,1.950168846E-1,-3.857961313E0,3.920863571E0
6.564245833E-1,2.054172175E-1,3.394143868E-1,-3.206604878E0,3.231054503E0
6.664525833E-1,-1.505242878E-1,3.032501985E-1,-2.901221761E0,2.920908412E0
6.764805834E-1,2.535093237E-2,2.471122505E-1,-2.812090314E0,2.823040749E0
6.865085834E-1,-1.094496444E-2,1.582070176E-1,-3.050331607E0,3.054451206E0
6.965365834E-1,-1.147849363E-1,9.146744628E-2,-3.459703361E0,3.462815217E0
7.065645833E-1,-8.028322108E-2,4.556106582E-2,-3.855611901E0,3.856716782E0
7.165935833E-1,3.493736568E-1,2.336578804E-1,-4.040421923E0,4.062224424E0
7.266215833E-1,8.072955367E-1,4.532026286E-1,-3.891336635E0,3.999952439E0
7.366495834E-1,9.735675457E-1,4.280806513E-1,-3.418707363E0,3.580313791E0
7.466775834E-1,9.298084456E-1,3.093845125E-1,-2.595921090E0,2.774719595E0
7.567055834E-1,3.696044017E-1,1.746980843E-1,-2.221302847E0,2.258608681E0
7.667335834E-1,-7.487652004E-3,-2.785978988E-2,-1.535945438E0,1.536216333E0
7.767610000E-1,-1.362540118E-2,-8.906880878E-3,-3.882609665E-1,3.886020615E-1
7.867900000E-1,1.162528798E-2,-2.053082217E-1,6.453449124E-1,6.773157825E-1
7.968180000E-1,-2.867735488E-1,-4.690568057E-1,1.689234290E0,1.776447534E0
8.068460000E-1,-5.633556200E-1,-4.209701813E-1,2.021642652E0,2.140472953E0
8.168740000E-1,-3.760657578E-1,-1.064381456E-1,1.898838844E0,1.938644756E0
8.269020000E-1,-6.576981056E-2,3.775297178E-1,1.989520388E0,2.026091245E0
8.369300000E-1,2.580916769E-1,5.911811306E-1,2.057435213E0,2.156187863E0
8.469590000E-1,4.512637650E-1,5.795143639E-1,2.385617208E0,2.496126068E0
8.569870000E-1,4.608548432E-1,5.237384681E-1,2.582994651E0,2.675546773E0
8.670150000E-1,3.085073570E-1,2.537113084E-1,3.065971740E0,3.091881131E0
8.770430000E-1,-2.368246593E-2,-5.021323850E-2,3.986542169E0,3.986928730E0
8.870710000E-1,3.214573682E-1,-1.672865740E-1,4.536811355E0,4.551261024E0
8.970990001E-1,9.450281632E-1,-2.416237798E-1,4.307993435E0,4.417042870E0
9.071270000E-1,1.598364173E0,-6.732219150E-2,3.580388723E0,3.921540987E0
9.171560000E-1,1.709149321E0,9.968314972E-2,2.626824794E0,3.135496234E0
9.271840000E-1,1.339994863E0,3.595624667E-1,1.543459695E0,2.075364843E0
9.372120000E-1,7.852536533E-1,8.273703437E-1,8.126097786E-1,1.400535483E0
9.472400000E-1,9.192807531E-1,9.299872242E-1,1.610299802E-1,1.317529504E0
9.572680001E-1,1.138414808E0,2.938041313E-1,-1.963880932E-1,1.192005631E0
9.672960000E-1,6.241635930E-1,-9.855750954E-1,1.053451914E-1,1.171339434E0
9.773240000E-1,2.177866367E-1,-1.282031853E0,8.668351024E-1,1.562830696E0
9.873530000E-1,-1.847526823E-1,-1.110268650E0,1.455415830E0,1.839854687E0
9.973810000E-1,-2.314917245E-1,-1.209564824E0,2.315609665E0,2.622724462E0
1.007409000E0,3.688747058E-2,-1.489016562E0,2.797952916E0,3.169711584E0
1.017437000E0,2.893929735E-1,-1.923997074E0,2.468124930E0,3.142793933E0
1.027465000E0,3.100945837E-1,-2.265867401E0,1.663026484E0,2.827714770E0
1.037493000E0,8.203104520E-3,-2.300384685E0,2.606946015E-1,2.315123898E0
1.047521000E0,-5.166990052E-1,-2.313152811E0,-1.000322943E0,2.572605640E0
1.057550000E0,-4.148338939E-1,-2.269192713E0,-1.396115123E0,2.696379084E0
1.067578000E0,1.075028048E-1,-2.155588768E0,-9.842214650E-1,2.372090150E0
1.077606000E0,4.242840542E-1,-1.874635465E0,3.665970325E-2,1.922399287E0
1.087634000E0,2.468400260E-1,-1.302791222E0,4.894370931E-1,1.413415592E0
1.097662000E0,-1.835189015E-1,-5.573515528E-1,-9.527804017E-2,5.944727458E-1
1.107690000E0,-5.377362639E-1,-3.470030129E-2,-1.005276119E0,1.140589530E0
1.117719000E0,-8.127374672E-1,2.016555940E-1,-1.914251520E0,2.089393704E0
1.127747000E0,-6.513472985E-1,1.095283991E-1,-2.331826918E0,2.423564843E0
1.137775000E0,-4.276044687E-1,-2.183598831E-1,-2.243259142E0,2.294065866E0
1.147803000E0,-3.544305482E-1,-3.838383884E-1,-2.043469139E0,2.109198673E0
1.157831000E0,-3.494151355E-1,-4.818113372E-1,-1.739578816E0,1.838577591E0
1.167859000E0,-4.654096415E-1,-4.239499589E-1,-1.720391763E0,1.831962751E0
1.177887000E0,-7.423889579E-1,-2.338286556E-1,-2.097164705E0,2.236943675E0
1.187916000E0,-9.522216272E-1,3.392795719E-2,-2.443776539E0,2.622960333E0
1.197944000E0,-8.199684995E-1,3.533867471E-1,-2.672500904E0,2.817710350E0
1.207972000E0,-4.475958066E-1,5.549717360E-1,-2.707201790E0,2.799513738E0
1.218000000E0,-2.418406201E-1,7.226801135E-1,-2.706333479E0,2.811582176E0
1.228028000E0,-1.405395550E-1,8.926352837E-1,-2.795603505E0,2.938017711E0
1.238056000E0,-5.103124570E-2,9.641447577E-1,-2.746247742E0,2.911023181E0
1.248084000E0,-1.088836065E-1,7.857196033E-1,-2.358011919E0,2.487856737E0
1.258113000E0,-3.654410380E-1,5.483900004E-1,-1.798024076E0,1.914985462E0
1.268141000E0,-4.581047881E-1,5.920563857E-1,-1.490091573E0,1.667562190E0
1.278169000E0,-4.444310560E-2,6.682917255E-1,-1.154654353E0,1.334846693E0
1.288197000E0,4.454767026E-2,7.524736507E-1,-3.305916327E-1,8.230989719E-1
1.298225000E0,-2.224835406E-1,7.629072031E-1,-2.681579876E-1,8.387103389E-1
1.308253000E0,-6.619946397E-1,7.470433415E-1,-2.710009038E-1,1.034288232E0
1.318281000E0,-1.125816104E0,7.151827405E-1,-2.894816136E-1,1.364825211E0
1.328310000E0,-1.083189683E0,6.985709471E-1,-2.247751558E-1,1.308367352E0
1.338338000E0,-9.001794344E-1,6.224247041E-1,2.978039557E-1,1.134205767E0
1.348366000E0,-5.222385477E-1,5.393676370E-1,6.039284992E-1,9.635248729E-1
1.358394000E0,-2.645958638E-1,5.637351774E-1,5.045077068E-1,8.014588870E-1
1.368422000E0,-1.406498755E-1,6.180389269E-1,2.840811253E-1,6.945909504E-1
1.378450000E0,-2.703653115E-1,6.402924795E-1,1.314401454E-1,7.073530751E-1
1.388478000E0,-5.175384096E-1,6.023495317E-1,3.931346208E-1,8.861296710E-1
1.398507000E0,-6.059518551E-1,5.024531414E-1,1.329511244E0,1.545068593E0
1.408535000E0,-4.488377552E-1,6.986101965E-1,2.719910713E0,2.843839979E0
1.418563000E0,-3.307416138E-1,7.206710833E-1,4.359941853E0,4.431461360E0
1.428591000E0,-6.926100031E-2,3.133796956E-1,6.707231147E0,6.714905329E0
1.438619000E0,8.184632801E-1,3.190741528E-1,7.509883702E0,7.561087467E0
1.448647000E0,2.014558019E0,1.962233845E-1,6.258749707E0,6.577909662E0
1.458675000E0,2.798117223E0,-3.069063894E-1,3.098199254E0,4.185987355E0
1.468704000E0,2.297005140E0,-2.078386591E-1,-8.590126973E-1,2.461164833E0
1.478732000E0,1.253629880E0,8.864644977E-1,-2.884557781E0,3.267733278E0
1.488760000E0,9.880455440E-1,1.865718168E0,-2.244176570E0,3.081146988E0
1.498788000E0,1.220637112E0,1.912790155E0,-2.520734668E-1,2.283037925E0
1.508816000E0,1.257342277E0,1.413232993E0,1.952201704E0,2.718313556E0
1.518844000E0,1.122397895E0,7.864347178E-1,3.703836894E0,3.949261240E0
1.528872000E0,5.792910733E-1,2.534041834E-1,4.903518900E0,4.944116648E0
1.538901000E0,8.881317582E-2,-2.547820798E-1,4.916415519E0,4.923813892E0
1.548929000E0,-3.698063499E-1,-7.940189950E-1,4.042990605E0,4.136785700E0
1.558957000E0,-9.155158771E-1,-1.323892508E0,2.565340152E0,3.028503061E0
1.568985000E0,-9.026096103E-1,-1.568150586E0,9.528903294E-1,2.044945073E0
1.579013000E0,-5.194319938E-1,-1.494973121E0,-1.718116611E-1,1.591940161E0
1.589041000E0,-3.965568865E-1,-1.148001829E0,-9.127439314E-1,1.519298209E0
1.599069000E0,-2.367679413E-1,-4.912104806E-1,-1.091675162E0,1.220287447E0
1.609098000E0,1.725982944E-1,1.542885791E-1,-7.863288832E-1,8.197000972E-1
1.619126000E0,4.670354963E-1,5.180320607E-1,-3.413791609E-1,7.765430460E-1
1.629154000E0,3.799661795E-1,5.951580046E-1,-1.961097658E-2,7.063794578E-1
1.639182000E0,5.900806846E-1,1.940687951E-1,1.429527283E-2,6.213390913E-1
1.649210000E0,9.684218498E-1,-2.901580634E-1,-2.106570536E-1,1.032670797E0
1.659238000E0,1.222436884E0,-5.826335245E-1,-5.551147735E-1,1.463545753E0
1.669266000E0,1.121610421E0,-6.483677767E-1,-1.117916297E0,1.711177243E0
1.679295000E0,7.432101262E-1,-5.236574111E-1,-2.008188794E0,2.204404819E0
1.689323000E0,4.128222690E-1,-4.509680421E-1,-2.842906310E0,2.907904862E0
1.699351000E0,4.600347347E-1,-4.429178879E-1,-3.150496750E0,3.214566532E0
1.709379000E0,5.737931192E-1,-4.617820289E-1,-2.923872120E0,3.015212988E0
1.719407000E0,2.385560929E-1,-4.648467008E-1,-2.386180295E0,2.442713218E0
1.729435000E0,-3.596845273E-1,-3.211648247E-1,-2.172819489E0,2.225682892E0
1.739463000E0,-5.437362380E-1,-2.232523216E-1,-2.204654655E0,2.281664490E0
1.749492000E0,-4.206824617E-1,-2.812764352E-1,-2.275432861E0,2.331026571E0
1.759520000E0,-2.545971616E-1,-3.488084138E-1,-2.403320239E0,2.441809819E0
1.769548833E0,4.654164389E-3,-3.194154109E-1,-2.492045889E0,2.512437179E0
1.779576833E0,3.452411737E-1,-2.520462772E-1,-2.474660363E0,2.511306971E0
1.789604833E0,5.651842270E-1,-2.041454481E-1,-2.264804962E0,2.343170948E0
1.799632833E0,7.256435555E-1,-1.390320971E-1,-2.145372659E0,2.269033349E0
1.809660833E0,7.628152556E-1,-8.725361377E-3,-2.204748795E0,2.332998177E0
1.819689833E0,6.620347662E-1,1.116902974E-1,-2.264175802E0,2.361621650E0
1.829717833E0,5.733949604E-1,2.221566264E-1,-2.253288286E0,2.335689074E0
1.839745833E0,6.937024091E-1,2.558700639E-1,-2.240754195E0,2.359591465E0
1.849773833E0,8.688948572E-1,2.372777454E-1,-2.126132396E0,2.309051313E0
1.859801833E0,6.301716802E-1,3.368967585E-1,-1.431577317E0,1.600009183E0
1.869829833E0,2.056750066E-1,4.144691373E-1,-5.023091537E-1,6.829358388E-1
1.879857833E0,1.220738195E-1,3.690050621E-1,1.331662434E-1,4.108527737E-1
1.889886833E0,3.191280933E-1,4.267289212E-1,7.753893274E-1,9.408341625E-1
1.899914833E0,6.292862655E-1,5.262209035E-1,1.242374282E0,1.488759047E0
1.909942833E0,1.018694163E0,4.783343270E-1,1.225824323E0,1.664087377E0
1.919970833E0,1.076547538E0,5.044063307E-1,1.166935260E0,1.665868617E0
1.929998833E0,9.051376540E-1,4.876311075E-1,1.085123942E0,1.494841878E0
1.940026833E0,7.079865722E-1,3.552635206E-1,1.025668868E0,1.295937415E0
1.950054833E0,3.484378465E-1,2.349168590E-1,1.744444284E0,1.794346880E0
1.960082833E0,-5.586451761E-2,1.472822260E-1,3.033217392E0,3.037304832E0
1.970111833E0,-2.691962338E-1,5.670264289E-3,4.149726849E0,4.158453040E0
1.980139833E0,-1.264257925E-1,-8.167566240E-2,4.698807880E0,4.701217916E0
1.990167833E0,3.101238198E-1,-8.136977993E-2,4.568005666E0,4.579243779E0
2.000195833E0,6.955924485E-1,-6.284879744E-2,3.740937477E0,3.805576439E0
2.010223833E0,8.974658878E-1,-5.866511464E-3,2.688701785E0,2.834536421E0
2.020251833E0,8.961713874E-1,1.672956372E-1,1.840413465E0,2.053833662E0
2.030279833E0,7.149873704E-1,4.383696312E-1,1.451629173E0,1.676485052E0
2.040307833E0,5.597889646E-1,5.975662901E-1,1.270023426E0,1.511095185E0
2.050336833E0,4.057645700E-1,5.041477375E-1,1.072897414E0,1.252963961E0
2.060364833E0,1.794052208E-1,2.479115649E-1,7.529909831E-1,8.127987438E-1
2.070392833E0,-1.718601565E-1,7.264639199E-2,5.773774624E-1,6.067768500E-1
2.080420833E0,-5.322749645E-1,-1.038518856E-1,3.155391455E-1,6.274287244E-1
2.090448833E0,-6.051947869E-1,-4.183033758E-1,-1.217197341E-1,7.456903767E-1
2.100476833E0,-5.033127186E-1,-7.586738920E-1,-3.919552374E-1,9.912308890E-1
2.110504833E0,-1.316079605E-1,-1.158589748E0,-4.349024516E-1,1.244504320E0
2.120533833E0,3.053260332E-1,-1.546182889E0,-5.758221030E-2,1.577092650E0
2.130561833E0,4.945101374E-1,-1.650698069E0,6.714258331E-1,1.849366659E0
2.140589833E0,4.700323040E-1,-1.524479925E0,1.225571138E0,2.011714201E0
2.150617833E0,3.622983058E-1,-1.342945222E0,1.330887678E0,1.925103619E0
2.160645833E0,1.003001406E-1,-1.232695971E0,9.577938044E-1,1.564278890E0
2.170673833E0,-3.308342922E-1,-1.282669199E0,4.261871767E-1,1.391519713E0
2.180701833E0,-6.401606979E-1,-1.442986404E0,-3.430912256E-2,1.578984673E0
2.190730833E0,-9.851283681E-1,-1.533978142E0,-2.561694413E-1,1.840975183E0
2.200758833E0,-1.269491329E0,-1.537213992E0,-3.474397999E-1,2.023696990E0
2.210786833E0,-1.428785856E0,-1.467788685E0,-6.979055339E-1,2.164002028E0
2.220814833E0,-1.397698257E0,-1.414573321E0,-1.339171429E0,2.397489982E0
2.230842833E0,-1.261632087E0,-1.529082269E0,-2.308784795E0,3.043073337E0
2.240870833E0,-1.235073887E0,-1.451702410E0,-2.974726524E0,3.532965509E0
2.250898833E0,-1.067149382E0,-1.169620301E0,-3.062517790E0,3.447583888E0
2.260926833E0,-7.764052080E-1,-6.948915866E-1,-2.798964484E0,2.986617074E0
2.270955833E0,-6.209583686E-1,-2.083926462E-1,-2.508657244E0,2.592754897E0
2.280983833E0,-5.646359409E-1,1.632299220E-1,-2.439918546E0,2.509713184E0
2.291011833E0,-4.297017919E-1,5.251056933E-1,-2.427480934E0,2.520524410E0
2.301039833E0,-3.048462691E-1,8.512725187E-1,-2.514595676E0,2.672225208E0
2.311067833E0,-2.145643093E-1,1.003692108E0,-2.842106996E0,3.021755759E0
2.321095833E0,-1.410170075E-1,1.020591000E0,-3.105783677E0,3.272213935E0
2.331123833E0,-2.123900952E-1,9.308767319E-1,-3.153985784E0,3.295340251E0
2.341151833E0,-4.824797105E-1,8.074643750E-1,-2.801124446E0,2.954840698E0
2.351180833E0,-7.929132865E-1,8.458863560E-1,-2.129854733E0,2.424977607E0
2.361208833E0,-8.915802267E-1,8.934314552E-1,-1.533335241E0,1.986014106E0
2.371236833E0,-9.432739985E-1,9.165400900E-1,-9.446241206E-1,1.619298089E0
2.381264833E0,-1.007092410E0,9.325815607E-1,-3.566988659E-1,1.418159925E0
2.391292833E0,-1.038556716E0,1.041640246E0,4.451508665E-1,1.536806347E0
2.401320833E0,-1.117953427E0,1.278757850E0,1.158332836E0,2.055912562E0
2.411348833E0,-1.096150036E0,1.288787141E0,1.360435413E0,2.171013982E0
2.421377833E0,-8.865881664E-1,9.358464266E-1,1.119753492E0,1.707540627E0
2.431405833E0,-6.285819684E-1,5.332985196E-1,1.095112156E0,1.370690788E0
2.441433833E0,-3.633388178E-1,2.544086985E-1,1.122065481E0,1.206552869E0
2.451461833E0,-5.514082235E-1,1.036623627E-2,6.567879134E-1,8.576297867E-1
2.461489833E0,-7.092278630E-1,-3.938513432E-1,5.594230020E-1,9.854324621E-1
2.471517833E0,-4.548625801E-1,-6.344864137E-1,7.554666942E-1,1.086371438E0
2.481545833E0,-3.079365957E-1,-5.299983510E-1,1.250356901E0,1.392521303E0
2.491573833E0,-1.286945853E-1,-2.277921729E-1,1.846599235E0,1.865041636E0
2.501602833E0,5.492143482E-2,5.250945836E-2,2.484731607E0,2.485893152E0
2.511630833E0,1.701753178E-1,3.917879339E-1,3.175117037E0,3.203720590E0
2.521658833E0,5.780064035E-1,7.126502384E-1,3.575052554E0,3.690929765E0
2.531686833E0,1.109824116E0,8.498677982E-1,3.521361081E0,3.788663182E0
2.541714833E0,1.535318032E0,8.746979995E-1,3.032692312E0,3.509917479E0
2.551742833E0,1.742283007E0,8.782044286E-1,2.364006484E0,3.065178584E0
2.561770833E0,1.951318482E0,8.179558148E-1,1.788084978E0,2.770188337E0
2.571798833E0,2.010671229E0,7.435711187E-1,1.557462607E0,2.649789911E0
2.581827833E0,1.674506323E0,1.106420890E0,2.095103561E0,2.901309626E0
2.591855833E0,1.308062195E0,1.749101884E0,3.035320051E0,3.739458773E0
2.601883833E0,1.098956919E0,1.965992362E0,3.428015546E0,4.101721938E0
2.611911833E0,8.440488685E-1,1.522930267E0,3.176844304E0,3.622716498E0
2.621939833E0,4.268791216E-1,8.779959753E-1,2.364924497E0,2.558509448E0
2.631967833E0,2.523409769E-2,3.729091018E-1,1.033338076E0,1.098856468E0
2.641995833E0,-1.900193790E-1,2.349674374E-2,-3.553002119E-2,1.947353172E-1
2.652024833E0,-2.727731584E-1,-1.591261268E-1,-3.992706889E-1,5.090612961E-1
2.662052833E0,-3.512230215E-1,-2.656703262E-1,1.507739639E-1,4.654794531E-1
2.672080833E0,-3.387393988E-1,-3.892980799E-1,6.115281254E-1,8.001649977E-1
2.682108833E0,-3.313296975E-1,-4.953108040E-1,4.028152710E-1,7.192859679E-1
2.692136833E0,-5.320780595E-1,-5.190229080E-1,1.714953268E-1,7.628253322E-1
2.702164833E0,-7.465540027E-1,-3.755457576E-1,3.264880568E-1,8.972022883E-1
2.712192833E0,-8.138107967E-1,-2.000961964E-1,6.193540388E-1,1.042077697E0
2.722220833E0,-5.173036439E-1,2.622346485E-2,7.098204052E-1,8.787125456E-1
2.732249833E0,-8.925140636E-2,2.152864952E-1,1.749755895E-1,2.914284569E-1
2.742277833E0,7.858528102E-2,2.134667869E-1,-7.281707221E-1,7.628737222E-1
2.752305833E0,1.751202716E-1,2.529710875E-1,-1.523987882E0,1.554734879E0
2.762333833E0,8.644812327E-2,3.705744914E-1,-2.099934531E0,2.134133024E0
2.772361333E0,2.794581704E-2,5.028124528E-1,-2.515547018E0,2.565458659E0
2.782389333E0,1.181699625E-1,5.302741203E-1,-2.713476437E0,2.767328885E0
2.792417333E0,3.309603728E-1,3.210610367E-1,-2.711460317E0,2.750387611E0
2.802445333E0,3.583212490E-1,1.185329285E-1,-2.706735182E0,2.732921426E0
2.812474333E0,2.179689602E-1,1.711133208E-1,-2.825847058E0,2.839401668E0
2.822502333E0,4.468500674E-2,3.306131943E-1,-3.104020157E0,3.121897335E0
2.832530333E0,-2.903814270E-1,4.049083550E-1,-3.108160570E0,3.147845975E0
2.842558333E0,-5.074347498E-1,4.229962780E-1,-3.068935694E0,3.139232735E0
2.852586333E0,-4.193384061E-1,4.316474529E-1,-2.760479280E0,2.825315926E0
2.862614333E0,-2.069892414E-1,4.617163208E-1,-2.413780323E0,2.466244504E0
2.872642333E0,-2.000573672E-2,5.467639994E-1,-2.027823744E0,2.100338124E0
2.882670333E0,-7.714085430E-2,5.101489177E-1,-1.835776623E0,1.906902840E0
2.892699333E0,-3.972332266E-1,4.043306500E-1,-1.910566020E0,1.992872306E0
2.902727333E0,-5.141747257E-1,3.455508569E-1,-2.220773674E0,2.305562134E0
2.912755333E0,-3.271635929E-1,3.010779944E-1,-2.582118738E0,2.620118538E0
2.922783333E0,-2.495655594E-1,3.644944469E-1,-2.545460204E0,2.583506690E0
2.932811333E0,-1.574995045E-1,3.720137469E-1,-2.589318414E0,2.620643084E0
2.942839333E0,2.840983015E-2,4.479473705E-1,-2.425552522E0,2.466732454E0
2.952867333E0,2.729749969E-1,5.954436046E-1,-1.867406552E0,1.978958227E0
2.962895333E0,4.451047100E-1,7.611827861E-1,-8.999367750E-1,1.259922075E0
2.972924333E0,6.210124554E-1,9.325469890E-1,-9.273040831E-2,1.124232754E0
2.982952333E0,7.705912484E-1,9.903771213E-1,6.835073501E-1,1.428929674E0
2.992980333E0,8.265818466E-1,8.974112163E-1,1.789592975E0,2.165924158E0
3.003008333E0,9.890623017E-1,6.611724481E-1,2.259844769E0,2.553877762E0
3.013036333E0,1.036770246E0,3.139263372E-1,2.430379398E0,2.660861948E0
3.023064333E0,9.697346228E-1,1.913673815E-1,2.942245241E0,3.103838555E0
3.033092333E0,1.066631611E0,2.785788222E-1,3.482824422E0,3.653132232E0
3.043120333E0,2.046898969E-1,4.349496679E-1,3.820149123E0,3.850275119E0
3.053149333E0,-1.002781478E0,5.195397288E-1,4.097503611E0,4.250297409E0
3.063177333E0,-1.344365218E0,2.551056866E-1,4.267192149E0,4.481219207E0
3.073205333E0,-2.505795032E-1,-2.304833539E-1,4.370345219E0,4.383586431E0
3.083233333E0,1.442438081E0,-5.946273333E-1,3.761700355E0,4.072419287E0
3.093261333E0,2.440296861E0,-6.734400527E-1,2.494228070E0,3.553835103E0
3.103289333E0,2.517679498E0,-5.566534683E-1,1.650569576E0,3.061527897E0
3.113317333E0,1.826153568E0,-3.536379216E-1,1.704974994E0,2.523259076E0
3.123345333E0,1.233097236E0,-2.492619062E-1,2.405253913E0,2.714388822E0
3.133373333E0,1.057736899E0,-2.960594389E-1,3.200937172E0,3.384147945E0
3.143402333E0,8.666849752E-1,-3.644804136E-1,3.383090803E0,3.511309186E0
3.153430333E0,9.285352144E-1,-2.324469220E-1,3.064475437E0,3.210485777E0
3.163458333E0,1.550260738E0,1.438086145E-2,2.400389614E0,2.857513861E0
3.173486333E0,1.845066972E0,1.139016413E-1,1.771280081E0,2.560210702E0
3.183514333E0,1.514089715E0,-1.233686489E-1,1.207914301E0,1.940810256E0
3.193542333E0,1.095827270E0,-6.943317888E-1,8.660375422E-1,1.559793276E0
3.203570333E0,7.307978761E-1,-1.179174944E0,8.157035404E-1,1.609313938E0
3.213598333E0,3.091328264E-1,-1.394668230E0,8.292018378E-1,1.651737952E0
3.223627333E0,-2.455435339E-1,-1.327272052E0,8.802556318E-1,1.611456703E0
3.233655333E0,-8.507383025E-1,-1.073490906E0,8.523334229E-1,1.613260874E0
3.243683333E0,-1.239676084E0,-1.041640830E0,6.888277316E-1,1.759629523E0
3.253711333E0,-1.364186402E0,-1.247793481E0,3.835381705E-1,1.888145821E0
3.263739333E0,-1.503567505E0,-1.477666678E0,2.805786431E-2,2.108317172E0
3.273767333E0,-1.641470724E0,-1.469606438E0,-3.205350065E-1,2.226412340E0
3.283795333E0,-1.465292362E0,-1.212701270E0,-7.201834255E-1,2.033811752E0
3.293823333E0,-1.180095296E0,-8.693172455E-1,-1.170341263E0,1.875642837E0
3.303852333E0,-8.521030426E-1,-5.415687483E-1,-1.719990644E0,1.994428269E0
3.313880333E0,-3.595484333E-1,-2.470773865E-1,-2.390238263E0,2.429724524E0
3.323908333E0,5.587188145E-2,1.072854437E-3,-2.945045473E0,2.945575607E0
3.333936333E0,2.111417695E-1,1.987461657E-1,-3.426941412E0,3.439187161E0
3.343964333E0,2.044692742E-1,3.946695880E-1,-3.676366090E0,3.703139127E0
3.353992333E0,1.377396706E-1,5.848894900E-1,-3.848690552E0,3.895316020E0
3.364020333E0,-5.933589991E-3,7.167806384E-1,-4.114597946E0,4.176568682E0
3.374048333E0,-2.480298248E-1,7.379100638E-1,-4.270298190E0,4.340676984E0
3.384077333E0,-5.032478511E-1,7.411676938E-1,-4.179100921E0,4.274046380E0
3.394105333E0,-7.817701746E-1,6.988991951E-1,-4.174830115E0,4.304512885E0
3.404133333E0,-1.033939463E0,5.606612596E-1,-3.947714903E0,4.119201964E0
3.414161333E0,-1.225864522E0,3.771435458E-1,-3.518314682E0,3.744798964E0
3.424189333E0,-1.337905068E0,1.132210254E-1,-3.055802847E0,3.337774710E0
3.434217333E0,-1.511981940E0,-1.170873506E-1,-2.666313381E0,3.067413549E0
3.444245333E0,-1.634207312E0,-2.120983192E-1,-2.352436014E0,2.872207241E0
3.454273333E0,-1.611187409E0,-1.301765986E-1,-1.667045860E0,2.322049249E0
3.464301333E0,-1.268525808E0,5.573094528E-2,-1.150443773E0,1.713413125E0
3.474330333E0,-5.621242695E-1,1.188712630E-1,-9.102647120E-1,1.076427386E0
3.484358333E0,8.398926676E-1,6.809060700E-2,-4.975922048E-1,9.785979901E-1
3.494386333E0,1.206577262E0,3.657204618E-1,-8.170431376E-2,1.263430149E0
3.504414333E0,5.779108746E-1,6.503993187E-1,1.620351166E-1,8.850173059E-1
3.514442333E0,-6.293393838E-2,7.665690219E-1,2.541778797E-1,8.100587265E-1
3.524470333E0,-3.002677896E-1,5.848637988E-1,4.363209862E-1,7.890515899E-1
3.534498333E0,-2.560087160E-1,1.249182341E-1,7.940466231E-1,8.435965076E-1
3.544526333E0,-9.873473134E-2,-3.041521315E-1,1.555228971E0,1.587763905E0
3.554555333E0,-3.744708566E-2,-5.856527343E-1,2.523420879E0,2.590761344E0
3.564583333E0,9.728871491E-3,-8.583988128E-1,3.155822394E0,3.270498151E0
3.574611333E0,-1.307068680E-1,-7.403563926E-1,3.627369347E0,3.704459509E0
3.584639333E0,-3.754849831E-1,-2.228958607E-1,4.375672032E0,4.397405743E0
3.594667333E0,-1.843659438E-1,2.378085995E-1,5.062406461E0,5.071341332E0
3.604695333E0,4.212385319E-1,4.354881234E-1,5.448974074E0,5.482555085E0
3.614723333E0,1.246283146E0,3.829623659E-1,5.326764343E0,5.484004031E0
3.624751333E0,1.686332609E0,4.160922512E-2,4.133324824E0,4.464283044E0
3.634779333E0,1.584235546E0,-2.212864877E-1,1.994917368E0,2.557042291E0
3.644808333E0,1.343022405E0,-1.633887470E-2,7.022810054E-1,1.515643345E0
3.654836333E0,9.065969729E-1,4.333622950E-1,1.414756047E0,1.735296984E0
3.664864333E0,2.601593620E-1,7.776268376E-1,2.638471279E0,2.762954411E0
3.674892333E0,-3.180835614E-1,7.852188624E-1,2.906874849E0,3.027815583E0
3.684920333E0,-4.476227769E-1,6.985755517E-1,2.390822400E0,2.530692731E0
3.694948333E0,-4.217060534E-1,6.378592338E-1,1.310040600E0,1.516874013E0
3.704976333E0,-5.906927419E-1,3.889322269E-1,-3.531659782E-2,7.081196611E-1
3.715004333E0,-8.463400999E-1,1.046551468E-1,-8.055773324E-1,1.173115128E0
3.725033333E0,-1.028559878E0,-3.029105484E-1,-7.673137379E-1,1.318506957E0
3.735061333E0,-1.156465089E0,-6.481368117E-1,-4.457823658E-1,1.398647471E0
3.745089333E0,-9.569532672E-1,-7.711853986E-1,2.501380384E-2,1.229273023E0
3.755117333E0,-7.424510115E-1,-6.801669820E-1,5.334292048E-1,1.139476785E0
3.765145333E0,-4.980738692E-1,-3.640882116E-1,1.157511887E0,1.311667478E0
3.775173333E0,-8.426994408E-2,-8.034585938E-2,1.294938412E0,1.300162440E0
3.785201333E0,2.825793410E-1,-6.264831103E-2,5.637131041E-1,6.336784347E-1
3.795229333E0,5.823095888E-1,-1.799260616E-1,-3.180885315E-3,6.094817166E-1
3.805257333E0,5.336864458E-1,-2.412087554E-1,-2.241062343E-1,6.270777387E-1
3.815286333E0,3.540035187E-1,-1.917642613E-1,-3.756748348E-1,5.506574296E-1
3.825314333E0,2.102106187E-1,-8.303820983E-2,-6.724561125E-1,7.094230555E-1
3.835342333E0,-1.549227096E-2,8.796638936E-2,-1.116993606E0,1.120559152E0
3.845370333E0,-1.379920601E-1,3.074718151E-1,-1.513929502E0,1.550987834E0
3.855398333E0,-1.470857778E-1,5.192967770E-1,-1.893997934E0,1.969398777E0
3.865426333E0,-1.613680589E-1,6.246997827E-1,-2.483201391E0,2.565653643E0
3.875454333E0,-1.184031385E-1,6.541743542E-1,-3.098833092E0,3.169342190E0
3.885482333E0,-1.410303099E-1,6.236179016E-1,-3.530380996E0,3.587809751E0
3.895510333E0,-1.702073496E-1,4.727454852E-1,-3.694493628E0,3.728503990E0
3.905539333E0,-1.235462581E-1,3.545660209E-1,-3.758447549E0,3.777156169E0
3.915567333E0,1.511031987E-2,3.806238451E-1,-3.616995217E0,3.636998382E0
3.925595333E0,2.466057720E-1,4.332139219E-1,-3.445622681E0,3.481494560E0
3.935623333E0,4.429913801E-1,5.018687122E-1,-3.526928800E0,3.589894194E0
3.945651333E0,4.951355337E-1,6.436879577E-1,-3.637164018E0,3.726721813E0
3.955679333E0,4.305723326E-1,7.511271100E-1,-3.512419519E0,3.617551015E0
3.965707333E0,3.762541112E-1,7.262490347E-1,-3.196662272E0,3.299644602E0
3.975735333E0,1.827648117E-1,6.241497058E-1,-2.616021479E0,2.695650981E0
3.985763333E0,6.835265363E-2,4.739856796E-1,-2.120869902E0,2.174263933E0
3.995792333E0,-5.577118143E-2,3.213277428E-1,-1.737027676E0,1.767378593E0
4.005820333E0,-4.870754393E-2,1.481810161E-1,-1.529831005E0,1.537762316E0
4.015848333E0,-2.486592410E-1,2.301230192E-1,-1.096113784E0,1.147280894E0
4.025876333E0,-5.272441297E-1,4.589009596E-1,-5.388068891E-1,8.825470677E-1
4.035904333E0,-5.819130745E-1,6.085979395E-1,2.829175293E-1,8.882885829E-1
4.045932333E0,-6.542613316E-1,7.619915291E-1,1.269073253E0,1.618405358E0
4.055960333E0,-6.995008005E-1,9.296523249E-1,1.978163341E0,2.294925929E0
4.065988333E0,-3.439558095E-1,9.239714625E-1,2.254158937E0,2.460337655E0
4.076017333E0,1.036638245E-2,9.027022887E-1,2.216594669E0,2.393380624E0
4.086045333E0,1.099137671E-1,8.705192868E-1,2.259865819E0,2.424227379E0
4.096073333E0,1.221105473E-1,6.814570239E-1,2.392108787E0,2.490276915E0
4.106101333E0,1.008263169E-1,4.042576329E-1,2.805077164E0,2.835850503E0
4.116129333E0,1.898282482E-1,2.098991814E-1,3.618486257E0,3.629536502E0
4.126157333E0,3.297310688E-1,4.406980656E-2,4.809295113E0,4.820786680E0
4.136185333E0,5.438817241E-1,-2.681101866E-2,5.783192734E0,5.808773051E0
4.146213333E0,9.187480717E-1,-1.201187664E-1,6.205547646E0,6.274340453E0
4.156241333E0,1.328439157E0,-3.633521202E-1,5.663625360E0,5.828672883E0
4.166270333E0,1.645432797E0,-5.260820322E-1,4.504894329E0,4.824757435E0
4.176298333E0,1.891455273E0,-4.811088308E-1,3.259913943E0,3.799487817E0
4.186326333E0,1.683015191E0,-3.617651859E-1,2.244485303E0,2.828626603E0
4.196354333E0,1.069169595E0,-3.274388140E-1,1.746389068E0,2.073695874E0
4.206382333E0,4.702879004E-1,-4.556923000E-1,1.456290573E0,1.596749328E0
4.216410333E0,-2.291870993E-1,-5.862297083E-1,1.090987530E0,1.259541896E0
4.226438333E0,-7.913560999E-1,-6.607280597E-1,8.922938794E-1,1.363449454E0
4.236466333E0,-1.026415777E0,-8.654763557E-1,9.228333020E-1,1.629171560E0
4.246494333E0,-1.123478022E0,-1.272329129E0,1.215591695E0,2.087746979E0
4.256523333E0,-1.138574144E0,-1.728144586E0,1.483347394E0,2.546203897E0
4.266551333E0,-9.521735338E-1,-2.059553513E0,1.592797916E0,2.772255456E0
4.276579333E0,-7.978341570E-1,-2.079121367E0,1.670342520E0,2.783761688E0
4.286607333E0,-5.946263466E-1,-1.893757175E0,1.549204000E0,2.517921715E0
4.296635333E0,-2.576996942E-1,-1.598129846E0,1.011774715E0,1.908956838E0
4.306663333E0,4.260126008E-2,-1.267233427E0,1.036231863E-1,1.272176556E0
4.316691333E0,3.455049928E-1,-9.848315489E-1,-8.702522153E-1,1.358898745E0
4.326719333E0,6.029595425E-1,-8.367726664E-1,-1.696352690E0,1.985286164E0
4.336747333E0,6.417281903E-1,-7.094132198E-1,-2.266814066E0,2.460391878E0
4.346776333E0,4.358632223E-1,-5.217047334E-1,-2.440770485E0,2.533675816E0
4.356804333E0,2.575119072E-1,-3.059511736E-1,-2.334439453E0,2.368443807E0
4.366832333E0,1.396814487E-1,-8.828082338E-2,-2.166943622E0,2.173234703E0
4.376860333E0,8.445054995E-2,8.322977923E-2,-2.136006589E0,2.139295033E0
4.386888333E0,1.004367462E-1,1.694452929E-1,-2.207887580E0,2.216656675E0
4.396916333E0,1.329497868E-1,9.115407206E-2,-2.310690402E0,2.316306294E0
4.406944333E0,1.769580514E-1,3.694468193E-2,-2.343031937E0,2.349995259E0
4.416972333E0,1.036062112E-1,7.785976946E-2,-2.296879864E0,2.300533308E0
4.427000333E0,-1.349105592E-1,1.330877446E-1,-2.572811725E0,2.579781653E0
4.437029333E0,-3.094449580E-1,1.542312033E-1,-3.121616768E0,3.140706081E0
4.447057333E0,-3.083643926E-1,2.079812946E-1,-3.684791928E0,3.703516757E0
4.457085333E0,-2.880608864E-1,3.902907544E-1,-4.184290910E0,4.212314846E0
4.467113333E0,-3.185709999E-1,5.374350592E-1,-4.492490630E0,4.535724417E0
4.477141333E0,-3.577648864E-1,5.596774290E-1,-4.529222839E0,4.577673433E0
4.487169333E0,-3.339447916E-1,5.072834531E-1,-4.340503369E0,4.382787369E0
4.497197333E0,-2.905795380E-1,3.818570229E-1,-4.143723512E0,4.171414125E0
4.507225333E0,-3.036204734E-1,2.811909197E-1,-3.996471911E0,4.017840398E0
4.517253333E0,-2.674039160E-1,2.135456512E-1,-3.603037328E0,3.619251938E0
4.527281333E0,-3.725301657E-1,-2.832530133E-2,-2.384239604E0,2.413333698E0
4.537310333E0,-8.875997347E-1,-2.658704837E-1,-4.362256765E-1,1.024115835E0
4.547338333E0,-1.258547096E0,-2.721300012E-1,1.085991084E0,1.684450107E0
4.557366333E0,-1.416628471E0,-1.053609058E-1,1.743468384E0,2.248915106E0
4.567394333E0,-1.347772391E0,2.261051781E-1,1.617987721E0,2.117899486E0
4.577422333E0,-1.102666539E0,5.954367341E-1,1.179750602E0,1.721112978E0
4.587450333E0,-6.491194363E-1,8.096203896E-1,5.137047923E-1,1.157900614E0
4.597478333E0,-2.266922385E-1,8.612798821E-1,-2.218620729E-1,9.178317851E-1
4.607506333E0,1.607075245E-2,7.953376152E-1,-5.982742417E-1,9.953653900E-1
4.617534333E0,5.297437596E-2,6.760115851E-1,-1.928353250E-1,7.049705031E-1
4.627563333E0,2.409301721E-1,4.160105364E-1,6.834863001E-1,8.356229034E-1
4.637591333E0,6.399395270E-1,9.791140683E-2,1.531575814E0,1.662778914E0
4.647619333E0,1.086827894E0,-1.031873495E-1,2.313450873E0,2.558104267E0
4.657647333E0,1.342933381E0,-1.704816388E-1,3.160444034E0,3.438159471E0
4.667675333E0,1.437813664E0,-2.223889071E-1,3.960812082E0,4.219573119E0
4.677703333E0,1.479854706E0,-2.706027085E-1,4.450336298E0,4.697732320E0
4.687731333E0,1.617112539E0,-1.144197777E-1,4.266114507E0,4.563756987E0
4.697759333E0,1.652125666E0,-8.483849443E-2,3.592086078E0,3.954718597E0
4.707787333E0,1.620689427E0,-2.185879245E-1,3.114491935E0,3.517737187E0
4.717816333E0,1.518106606E0,-2.568831671E-1,3.356048600E0,3.692383896E0
4.727844333E0,1.101906913E0,3.851487860E-2,3.680315884E0,3.841927543E0
4.737872333E0,5.703042318E-1,2.622922801E-1,3.417739064E0,3.474907836E0
4.747900333E0,7.258985672E-2,3.442144027E-1,2.987012694E0,3.007656509E0
4.757928333E0,-4.250179528E-1,4.145371842E-1,2.754532077E0,2.817787838E0
4.767956333E0,-9.636471596E-1,4.554048362E-1,2.537452442E0,2.752212621E0
4.777983958E0,-1.310463939E0,2.034453902E-1,2.275388423E0,2.633647326E0
4.788011958E0,-1.397601924E0,-3.324025154E-1,1.871728814E0,2.359481155E0
4.798039958E0,-1.291240925E0,-9.672997691E-1,1.410211006E0,2.142817549E0
4.808067958E0,-1.103147765E0,-1.419881131E0,1.093549195E0,2.104482658E0
4.818096958E0,-9.096916118E-1,-1.574659561E0,8.901596457E-1,2.024716216E0
4.828124958E0,-8.600898276E-1,-1.398375657E0,8.419224554E-1,1.845004718E0
4.838152958E0,-8.577681175E-1,-9.953829226E-1,9.285670817E-1,1.608971762E0
4.848180958E0,-7.471547310E-1,-5.915337908E-1,8.922798461E-1,1.305494443E0
4.858208958E0,-3.477038748E-1,-3.345864505E-1,6.812895012E-1,8.348661341E-1
4.868236958E0,1.845547723E-1,-2.569941911E-1,4.251452029E-1,5.299574717E-1
4.878264958E0,5.997481055E-1,-2.473401457E-1,-1.015140957E-1,6.566430151E-1
4.888292958E0,7.755785579E-1,-1.513857289E-1,-6.533199298E-1,1.025312962E0
4.898320958E0,7.021426456E-1,4.624175481E-2,-1.230628395E0,1.417599676E0
4.908348958E0,5.342748949E-1,2.339457095E-1,-1.757174842E0,1.851443676E0
4.918377958E0,4.092532382E-1,4.230381587E-1,-2.257856131E0,2.333316054E0
4.928405958E0,2.789941938E-1,5.855104277E-1,-2.791524487E0,2.865880176E0
4.938433958E0,1.411776232E-1,6.297587205E-1,-3.255138522E0,3.318501765E0
4.948461958E0,-2.676361967E-3,6.574506222E-1,-3.626960042E0,3.686066688E0
4.958489958E0,-1.906472969E-1,6.074955200E-1,-3.850129552E0,3.902421654E0
4.968517958E0,-3.357702558E-1,4.895696057E-1,-3.937185822E0,3.981689624E0
4.978545958E0,-3.749718899E-1,4.396890555E-1,-3.833918731E0,3.877223649E0
4.988573958E0,-4.443954062E-1,4.912675640E-1,-3.640244331E0,3.700028363E0
4.998601958E0,-4.143360400E-1,5.408869629E-1,-3.202591349E0,3.274267003E0
5.008629958E0,-2.473479298E-1,4.752249239E-1,-2.417168199E0,2.475827504E0
5.018658958E0,-8.368078228E-2,4.403458440E-1,-1.817181893E0,1.871645524E0
5.028686958E0,1.357560301E-1,4.271410038E-1,-1.718440547E0,1.775927096E0
5.038714958E0,3.382609139E-1,4.711511687E-1,-1.899266860E0,1.985854596E0
5.048742958E0,3.991199038E-1,5.511785741E-1,-2.122741596E0,2.229153741E0
5.058770958E0,4.407242319E-1,6.239029533E-1,-2.386169770E0,2.505453834E0
5.068798958E0,3.899747124E-1,6.302819733E-1,-2.690639552E0,2.790855933E0
5.078826958E0,2.285174834E-1,6.268940965E-1,-2.570640653E0,2.655825638E0
5.088854958E0,1.359221367E-1,5.681797191E-1,-1.636329267E0,1.737491436E0
5.098882958E0,1.009816062E-1,4.897679725E-1,-6.864005524E-1,8.492441757E-1
5.108910958E0,1.609262286E-1,4.745526402E-1,-2.099401850E-1,5.432976539E-1
5.118939958E0,4.333821756E-1,5.420058277E-1,-3.441729605E-2,6.948201045E-1
5.128967958E0,6.645133279E-1,7.103700435E-1,9.818352163E-2,9.776725247E-1
5.138995958E0,6.825378086E-1,8.054297633E-1,3.414382178E-1,1.109574252E0
5.149023958E0,7.376016963E-1,8.743620770E-1,8.181166863E-1,1.406371294E0
5.159051958E0,9.818203059E-1,8.526403286E-1,1.057425681E0,1.676041680E0
5.169079958E0,1.161038708E0,7.050881805E-1,8.765321249E-1,1.616622649E0
5.179107958E0,1.215500625E0,5.284608988E-1,8.489046156E-1,1.573960526E0
5.189135958E0,1.236496661E0,3.801040276E-1,1.200093650E0,1.764547487E0
5.199163958E0,1.278068464E0,2.467925540E-1,2.059447240E0,2.436326845E0
5.209191958E0,1.334227608E0,1.145087285E-1,3.030889615E0,3.313543031E0
5.219220958E0,1.505241709E0,8.102494039E-2,3.874988989E0,4.157866918E0
5.229248958E0,1.946189597E0,4.318168759E-2,4.397186862E0,4.808822195E0
5.239276958E0,2.409717531E0,-8.056279108E-2,4.219221591E0,4.859532877E0
5.249304958E0,2.640300288E0,-1.625179504E-1,3.712003115E0,4.558131725E0
5.259332958E0,2.537586636E0,-2.571627371E-2,3.275119042E0,4.143236899E0
5.269360958E0,2.101883993E0,7.212101966E-2,2.892408838E0,3.576191640E0
5.279388958E0,1.598262724E0,-1.434611437E-1,2.576326486E0,3.035207241E0
5.289416958E0,8.426875636E-1,-4.828787099E-1,2.310146611E0,2.506007092E0
5.299444958E0,-5.998245578E-2,-6.374766067E-1,1.729215211E0,1.843952159E0
5.309472958E0,-6.895425537E-1,-8.116915465E-1,1.137080546E0,1.557967993E0
5.319501958E0,-9.076751263E-1,-1.032264455E0,1.001597051E0,1.700776497E0
5.329529958E0,-8.483272031E-1,-1.363427726E0,1.389800130E0,2.123708692E0
5.339557958E0,-7.817470781E-1,-1.683635581E0,1.927604806E0,2.676082501E0
5.349585958E0,-5.567220269E-1,-1.853044182E0,2.226689887E0,2.949891525E0
5.359613958E0,-2.945090131E-1,-1.926591484E0,2.144055866E0,2.897493030E0
5.369641958E0,-2.407017835E-1,-1.716854490E0,2.016004182E0,2.658909466E0
5.379669958E0,-2.305230236E-1,-1.258315838E0,1.926502606E0,2.312555276E0
5.389697958E0,-1.772631299E-1,-8.584573580E-1,1.595563064E0,1.820492446E0
5.399725958E0,-9.168869030E-2,-6.443206264E-1,1.101204954E0,1.279143556E0
5.409753958E0,4.707538504E-3,-6.121181460E-1,6.034069276E-1,8.595409856E-1
5.419781958E0,2.168677468E-2,-5.995378981E-1,3.741808712E-2,6.010957666E-1
5.429810958E0,-1.939180101E-1,-5.644956078E-1,-5.618238688E-1,8.196984478E-1
5.439838958E0,-4.980706898E-1,-5.112242207E-1,-1.165895040E0,1.367017140E0
5.449866958E0,-7.772047417E-1,-4.967853987E-1,-1.655580640E0,1.895201888E0
5.459894958E0,-9.456011903E-1,-5.173088333E-1,-2.000090400E0,2.272032493E0
5.469922958E0,-9.898594234E-1,-4.897241183E-1,-2.552886168E0,2.781524614E0
5.479950958E0,-9.302225015E-1,-4.085142232E-1,-3.180112313E0,3.338459539E0
5.489978958E0,-7.234330156E-1,-2.772532219E-1,-3.722168500E0,3.801942006E0
5.500006958E0,-4.549775144E-1,5.695626587E-3,-4.045831767E0,4.071337822E0
5.510034958E0,-3.319137978E-1,4.034800263E-1,-3.835035549E0,3.870459994E0
5.520062958E0,-4.071517123E-1,7.673349340E-1,-3.602680063E0,3.705924858E0
5.530091958E0,-4.715320783E-1,8.915108641E-1,-3.708243356E0,3.842941960E0
5.540119958E0,-4.808049218E-1,7.968917321E-1,-3.878976206E0,3.989068338E0
5.550147958E0,-5.888298921E-1,6.323011630E-1,-3.920094995E0,4.014183625E0
5.560175958E0,-8.164829743E-1,5.016075243E-1,-3.680407101E0,3.803110698E0
5.570203958E0,-9.815081377E-1,3.475766978E-1,-3.173421344E0,3.339875868E0
5.580231958E0,-1.044386829E0,1.447090857E-1,-2.492508988E0,2.706341742E0
5.590259958E0,-9.712472975E-1,4.164365061E-2,-1.853657994E0,2.093108565E0
5.600287958E0,-7.563322283E-1,4.816311333E-2,-1.425761091E0,1.614668020E0
5.610315958E0,-6.160285811E-1,2.211739288E-1,-1.041589082E0,1.230169475E0
5.620343958E0,-4.220970859E-1,4.326275558E-1,-8.844884312E-1,1.071285367E0
5.630372958E0,-1.140472370E-1,5.980292434E-1,-9.810405797E-1,1.154593594E0
5.640400958E0,4.707379533E-2,9.296546638E-1,-1.095126774E0,1.437280900E0
5.650428958E0,-2.189078403E-1,1.112581736E0,-1.021758251E0,1.526351429E0
5.660456958E0,-6.955163616E-1,1.037090235E0,-7.107565445E-1,1.436827766E0
5.670484958E0,-1.036787422E0,7.156413084E-1,-1.986649990E-1,1.275358155E0
5.680512958E0,-1.467458463E0,3.268206537E-1,6.908678252E-1,1.654552638E0
5.690540958E0,-1.783141742E0,-1.597974237E-1,2.050552456E0,2.722112243E0
5.700568958E0,-1.602206378E0,-6.752779788E-1,3.337455624E0,3.763200190E0
5.710596958E0,-1.048343786E0,-9.402627555E-1,4.010697602E0,4.250742758E0
5.720624958E0,-4.133812628E-1,-8.003890979E-1,3.956509700E0,4.057767340E0
5.730652958E0,1.162383074E-1,-2.973635872E-1,3.554300201E0,3.568611266E0
5.740680958E0,5.084250854E-1,2.354332412E-1,3.238566928E0,3.286676228E0
5.750709958E0,7.873330694E-1,7.304848308E-1,3.045563788E0,3.229390072E0
5.760737958E0,8.809722081E-1,1.098888507E0,2.691647027E0,3.037866307E0
5.770765958E0,8.957367200E-1,1.296881734E0,2.285388331E0,2.776192775E0
5.780794000E0,9.913798457E-1,1.073840935E0,2.127957312E0,2.581505505E0
5.790822000E0,1.085106035E0,6.663308617E-1,2.506886122E0,2.811748558E0
5.800850000E0,9.249297481E-1,6.873042396E-1,3.230026485E0,3.429424624E0
5.810878000E0,6.317306209E-1,9.911697114E-1,3.724819043E0,3.905864549E0
5.820906000E0,6.228928468E-1,1.218410930E0,3.760342047E0,4.001586311E0
5.830934000E0,7.707847913E-1,1.160725517E0,3.342626901E0,3.621401320E0
5.840962000E0,5.634765112E-1,1.029574662E0,2.856204633E0,3.087949913E0
5.850990000E0,4.132220723E-1,7.236194687E-1,2.214195557E0,2.365806328E0
5.861019000E0,3.054196982E-1,8.838614635E-2,1.496005447E0,1.529420021E0
5.871047000E0,6.097695753E-3,-4.983188675E-1,7.705840856E-1,9.176920554E-1
5.881075000E0,-2.030174471E-1,-9.468622886E-1,2.186911279E-1,9.927688990E-1
5.891103000E0,-1.726834810E-1,-1.291862630E0,-1.357834572E-1,1.310406726E0
5.901131000E0,-3.246885762E-2,-1.486537782E0,-1.684810871E-1,1.496407257E0
5.911159000E0,-2.820203472E-2,-1.405937861E0,4.364361763E-2,1.406897789E0
5.921187000E0,-1.458941701E-1,-1.280573703E0,1.951402974E-1,1.303546644E0
5.931215000E0,-1.525417234E-1,-1.302918399E0,1.841411000E-1,1.324678556E0
5.941243000E0,-1.317839799E-1,-1.353759208E0,-1.311407679E-1,1.366465848E0
5.951271000E0,-6.371473353E-2,-1.264296517E0,-4.281892633E-1,1.336357473E0
5.961299000E0,1.163530682E-1,-1.092615541E0,-4.801172161E-1,1.199107709E0
5.971328000E0,2.016187565E-1,-7.674363101E-1,-5.331309968E-1,9.559483631E-1
5.981356000E0,2.711658684E-1,-3.156303255E-1,-7.068219531E-1,8.202138160E-1
5.991384000E0,3.047008196E-1,7.609920938E-2,-1.298038605E0,1.335491632E0
6.001412000E0,2.939651855E-1,3.716751932E-1,-2.067808174E0,2.121411941E0
6.011440000E0,3.091092548E-1,5.516124010E-1,-2.857431963E0,2.926558080E0
6.021468000E0,3.703905599E-1,6.334033632E-1,-3.480771464E0,3.557268471E0
6.031496000E0,4.510476739E-1,5.811702588E-1,-3.919686275E0,3.988125295E0
6.041524000E0,4.505350192E-1,3.858819538E-1,-4.217308967E0,4.258823970E0
6.051552000E0,4.952797407E-1,1.830888936E-1,-4.380159186E0,4.411872398E0
6.061580000E0,4.591274661E-1,-2.718706772E-2,-4.338427607E0,4.362738964E0
6.071608000E0,3.304446483E-1,-1.351920478E-1,-4.198135362E0,4.213289816E0
6.081636000E0,2.981592106E-1,-1.609802058E-1,-4.075298225E0,4.089360484E0
6.091665000E0,3.582391687E-1,-7.986923821E-2,-3.834224541E0,3.851751838E0
6.101693000E0,4.482232129E-1,1.414123524E-1,-3.543350120E0,3.574385482E0
6.111721000E0,4.784058823E-1,3.494900164E-1,-3.490953805E0,3.540871917E0
6.121749000E0,4.438557448E-1,6.255197816E-1,-3.497913746E0,3.581017103E0
6.131777000E0,3.840301406E-1,8.831111196E-1,-3.332825798E0,3.469163040E0
6.141805000E0,3.163972244E-1,1.070924125E0,-2.909707240E0,3.116629896E0
6.151833000E0,1.170870765E-1,1.233144452E0,-2.200104936E0,2.524839867E0
6.161861000E0,-6.447628769E-2,1.294545625E0,-1.269494838E0,1.814282974E0
6.171889000E0,-2.037128272E-1,1.123334765E0,-8.288428187E-2,1.144661398E0
6.181917000E0,-2.424618868E-1,9.849137753E-1,1.045604950E0,1.456754140E0
6.191945000E0,-2.018693645E-2,8.817614360E-1,1.838727129E0,2.039320523E0
6.201973000E0,3.072723520E-1,8.175032403E-1,2.244923260E0,2.408818857E0
6.212002000E0,7.336627194E-1,9.191913638E-1,2.362761027E0,2.639282747E0
6.222030000E0,1.008949559E0,1.107436259E0,2.309222167E0,2.752617172E0
6.232058000E0,1.085367113E0,1.150212369E0,2.162826598E0,2.679333715E0
6.242086000E0,1.023347524E0,1.112399303E0,2.075216011E0,2.567332050E0
6.252114000E0,9.142874502E-1,9.473848835E-1,2.377607108E0,2.717807060E0
6.262142000E0,8.759241606E-1,6.861755808E-1,3.149512079E0,3.340285377E0
6.272170000E0,7.774851888E-1,3.991157377E-1,4.170690871E0,4.261271985E0
6.282198000E0,6.090156499E-1,6.201534994E-2,5.356978660E0,5.391842573E0
6.292226000E0,6.857037105E-1,-2.403287860E-1,6.100193684E0,6.143314291E0
6.302254000E0,1.071090624E0,-5.030929364E-1,5.790821012E0,5.910494532E0
6.312282000E0,1.255264615E0,-5.958891624E-1,4.869324383E0,5.063703496E0
6.322310000E0,1.156059146E0,-3.795475554E-1,4.129645756E0,4.305171677E0
6.332339000E0,9.153976171E-1,-6.786676828E-2,3.405522476E0,3.527058553E0
6.342367000E0,5.251849597E-1,2.355295010E-2,2.504103432E0,2.558692632E0
6.352395000E0,2.343090044E-1,-1.828620947E-1,1.635454524E0,1.662242688E0
6.362423000E0,-1.830288500E-1,-2.708281552E-1,9.689514613E-1,1.022601772E0
6.372451000E0,-5.966569384E-1,-1.960033830E-1,4.569844615E-1,7.766927490E-1
6.382479000E0,-6.323933297E-1,-2.886456811E-1,1.709287316E-1,7.158591230E-1
6.392507000E0,-5.260354006E-1,-7.197812833E-1,1.262168276E-1,9.004049234E-1
6.402535000E0,-4.650724033E-1,-1.196936738E0,3.990952724E-1,1.344703288E0
6.412563000E0,-5.030573780E-1,-1.581109039E0,6.961946386E-1,1.799349742E0
6.422591000E0,-4.431885044E-1,-2.029309814E0,8.580139929E-1,2.247376778E0
6.432619000E0,-2.756886715E-1,-2.139228259E0,1.098003019E0,2.420312462E0
6.442647000E0,-1.808004030E-1,-1.750075738E0,1.514280335E0,2.321314026E0
6.452675000E0,-1.244858143E-1,-1.185717978E0,1.790511573E0,2.151128898E0
6.462704000E0,3.115005010E-2,-7.122502157E-1,1.376410006E0,1.550088772E0
6.472732000E0,1.180021840E-1,-3.741972435E-1,3.324703431E-1,5.142806836E-1
6.482760000E0,7.092834755E-2,-1.174646239E-1,-7.319871998E-1,7.447375571E-1
6.492788000E0,-1.536354451E-1,1.265294709E-1,-1.227568547E0,1.243598848E0
6.502816000E0,-3.640006495E-1,3.130815607E-1,-1.264081485E0,1.352190274E0
6.512844000E0,-4.547904035E-1,3.750092755E-1,-1.320218849E0,1.445836808E0
6.522872000E0,-5.417181446E-1,3.741545222E-1,-1.448255330E0,1.590878265E0
6.532900000E0,-7.357118031E-1,3.705409795E-1,-1.573710265E0,1.776270383E0
6.542928000E0,-8.065490665E-1,3.441412759E-1,-1.753900402E0,1.960898068E0
6.552956000E0,-6.942389642E-1,1.994414727E-1,-2.129549509E0,2.248716467E0
6.562984000E0,-5.329892749E-1,8.599724812E-2,-2.619580679E0,2.674635681E0
6.573012000E0,-3.276374732E-1,2.883262038E-2,-3.046707503E0,3.064409281E0
6.583041000E0,-1.360586692E-1,1.054191221E-1,-3.266209055E0,3.270741009E0
6.593069000E0,-3.807414929E-2,2.795613189E-1,-3.566109822E0,3.577253617E0
6.603097000E0,3.467622035E-2,4.606367055E-1,-4.003849928E0,4.030409763E0
6.613125000E0,5.945595969E-2,6.683433272E-1,-4.384313048E0,4.435360043E0
6.623153000E0,-1.277220563E-2,8.753164157E-1,-4.445194257E0,4.530573246E0
6.633181000E0,-9.401825756E-2,9.198599929E-1,-4.245357476E0,4.344886873E0
6.643209000E0,-1.532144090E-1,8.015010922E-1,-3.847793589E0,3.933369314E0
6.653237000E0,-3.172479212E-1,5.732027697E-1,-3.376844807E0,3.439809371E0
6.663265000E0,-6.280764035E-1,4.228727556E-1,-2.746160619E0,2.848631159E0
6.673293000E0,-8.121292837E-1,3.595404300E-1,-1.739861822E0,1.953443742E0
6.683321000E0,-8.478689276E-1,3.652205980E-1,-6.840283370E-1,1.148983276E0
6.693349000E0,-8.075640701E-1,4.208156320E-1,2.609401846E-1,9.472778385E-1
6.703377000E0,-5.186219717E-1,6.020244265E-1,8.926166457E-1,1.195059260E0
6.713406000E0,-2.064496530E-1,7.976117436E-1,8.975177819E-1,1.218336621E0
6.723434000E0,-1.957814994E-1,8.584235904E-1,5.388016266E-1,1.032244471E0
6.733462000E0,-2.858401505E-1,7.841797391E-1,3.282159090E-1,8.968657300E-1
6.743490000E0,-4.694103430E-1,6.808655781E-1,3.906138861E-1,9.146054961E-1
6.753518000E0,-5.499607453E-1,5.384507205E-1,7.680317760E-1,1.087317253E0
6.763546000E0,-3.808467702E-1,3.414329187E-1,1.424199300E0,1.513262815E0
6.773574833E0,-8.886961972E-2,1.288160246E-1,2.222422004E0,2.227925255E0
6.783602833E0,1.629190694E-1,-1.583569621E-1,3.201045345E0,3.209098137E0
6.793630833E0,3.667235517E-1,-4.836331469E-1,4.108717986E0,4.153305993E0
6.803658833E0,4.866588617E-1,-8.033518090E-1,4.770412298E0,4.862000049E0
6.813686833E0,6.003367008E-1,-1.078177084E0,4.933906880E0,5.085892948E0
6.823714833E0,5.945635986E-1,-1.116082098E0,4.405026809E0,4.582947339E0
6.833742833E0,6.200647679E-1,-1.166186670E0,3.555483093E0,3.792879076E0
6.843770833E0,7.753777792E-1,-1.227108956E0,2.997782096E0,3.330721331E0
6.853799833E0,6.186982736E-1,-8.278607058E-1,2.941498552E0,3.117780402E0
6.863827833E0,2.978591205E-1,-1.168225813E-1,2.922733083E0,2.940193232E0
6.873855833E0,4.029093016E-1,3.069610243E-1,2.619567230E0,2.668087976E0
6.883883833E0,6.334828853E-1,4.245995846E-1,2.105484708E0,2.239341695E0
6.893911833E0,4.797539578E-1,5.330131023E-1,1.705462652E0,1.850099912E0
6.903939833E0,8.633671554E-2,3.707899247E-1,1.418269054E0,1.468477547E0
6.913967833E0,-3.378816854E-1,-3.278840064E-1,1.096196229E0,1.193028972E0
6.923995833E0,-7.098320266E-1,-1.278660933E0,8.137932551E-1,1.673647140E0
6.934023833E0,-1.122898198E0,-1.980620634E0,5.208278704E-1,2.335598452E0
6.944051833E0,-1.325972070E0,-2.339431952E0,4.488375360E-1,2.726279319E0
6.954079833E0,-1.249912805E0,-2.444810619E0,6.154849362E-1,2.813930114E0
6.964107833E0,-1.074643977E0,-2.144754462E0,8.588799655E-1,2.548039673E0
6.974136833E0,-1.044291446E0,-1.533564452E0,1.013606063E0,2.114181119E0
6.984164833E0,-7.657708038E-1,-1.011765213E0,8.894152951E-1,1.549559078E0
6.994192833E0,-2.754428326E-1,-6.584075922E-1,3.948069245E-1,8.156235768E-1
7.004220833E0,2.510182636E-1,-3.333865287E-1,-3.167220372E-1,5.238984587E-1
7.014248833E0,6.325599754E-1,-4.679227017E-2,-1.060854489E0,1.236015326E0
7.024276833E0,8.513179808E-1,1.547653830E-1,-1.685075165E0,1.894247328E0
7.034304833E0,9.868986127E-1,2.765701575E-1,-1.945172766E0,2.198671647E0
7.044332833E0,1.040181219E0,4.253911514E-1,-1.910711031E0,2.216698275E0
7.054360833E0,9.848420008E-1,5.139887842E-1,-1.962481694E0,2.255090383E0
7.064388833E0,8.387314837E-1,4.686430421E-1,-2.307274459E0,2.499322355E0
7.074416833E0,6.140683752E-1,2.596209431E-1,-2.672131945E0,2.754046502E0
7.084444833E0,2.902763599E-1,6.105662584E-2,-2.864052181E0,2.879372010E0
7.094472833E0,9.034277089E-3,-1.502661332E-2,-3.019177642E0,3.019228553E0
7.104500833E0,-9.970038073E-2,-9.692929387E-3,-3.139798685E0,3.141396170E0
7.114528833E0,-1.129666076E-1,-1.766900662E-2,-3.287534435E0,3.289522201E0
7.124557833E0,-1.434666711E-1,6.476248149E-2,-3.528433288E0,3.531942572E0
7.134585833E0,-2.060894828E-1,2.162653374E-1,-3.687375228E0,3.699456668E0
7.144613833E0,-1.729631789E-1,4.104277976E-1,-3.622882778E0,3.650157101E0
7.154641833E0,-1.746787154E-2,5.513126215E-1,-3.382021347E0,3.426706747E0
7.164669833E0,1.078235885E-1,6.946309470E-1,-3.290896584E0,3.365135719E0
7.174697833E0,1.680614945E-1,8.450330280E-1,-3.299425918E0,3.410064057E0
7.184725833E0,2.467304273E-1,1.066137813E0,-3.150737071E0,3.335366521E0
7.194753833E0,2.977283804E-1,1.155612419E0,-2.774782155E0,3.020512913E0
7.204781833E0,7.145212560E-2,9.924998067E-1,-1.999848910E0,2.233731617E0
7.214809833E0,-2.127819683E-1,7.443615161E-1,-1.005112397E0,1.268700581E0
7.224837833E0,-1.737558238E-1,7.332730025E-1,-1.522234887E-1,7.687993061E-1
7.234865833E0,-9.411385953E-3,9.544721474E-1,1.837510908E-1,9.720442982E-1
7.244893833E0,1.867680348E-1,1.345938265E0,8.664228737E-2,1.361594286E0
7.254921833E0,3.997919316E-1,1.628259232E0,-4.909965456E-2,1.677340899E0
7.264950833E0,6.293815020E-1,1.852045185E0,-1.287866789E-1,1.960300603E0
7.274978833E0,7.931853282E-1,1.889673626E0,-2.829584599E-2,2.049587772E0
7.285006833E0,9.362505423E-1,1.699795238E0,5.396465492E-1,2.014221271E0
7.295034833E0,1.053014396E0,1.422425547E0,1.417523534E0,2.267489079E0
7.305062833E0,9.423311350E-1,1.031035004E0,2.719674486E0,3.057392755E0
7.315090833E0,7.078209499E-1,4.824272317E-1,4.302516932E0,4.386957771E0
7.325118833E0,4.492000633E-1,6.027821526E-3,5.655826929E0,5.673640390E0
7.335146833E0,1.780201799E-1,-2.729024184E-1,6.219052375E0,6.227582144E0
7.345174833E0,3.334694861E-1,-3.072660662E-1,5.793447581E0,5.811165908E0
7.355202833E0,7.049810303E-1,-1.782907415E-1,4.821838560E0,4.876362675E0
7.365230833E0,1.170916117E0,-1.501114744E-1,3.829272534E0,4.007106955E0
7.375258833E0,1.305249538E0,-1.053574705E-1,3.039548172E0,3.309626814E0
7.385286833E0,9.509937850E-1,1.309437899E-1,2.506773271E0,2.684296498E0
7.395314833E0,4.925652073E-1,2.859851979E-1,2.198874682E0,2.271444009E0
7.405342833E0,1.809618958E-1,2.226632877E-1,1.961344995E0,1.982221061E0
7.415371833E0,-7.850939512E-2,1.710275130E-1,1.875740004E0,1.885156412E0
7.425399833E0,-3.121089495E-1,2.155991933E-1,2.063167824E0,2.097750337E0
7.435427833E0,-4.152642490E-1,7.729832713E-2,2.306445909E0,2.344805356E0
7.445455833E0,-4.462482062E-1,-4.134996689E-1,2.494039789E0,2.567168461E0
7.455483833E0,-4.275083916E-1,-1.024474428E0,2.839405582E0,3.048694038E0
7.465511833E0,-4.944795492E-1,-1.438525855E0,2.951563949E0,3.320481352E0
7.475539833E0,-4.371539586E-1,-1.697059472E0,2.756426575E0,3.266343812E0
7.485567833E0,-3.171256047E-1,-1.656524088E0,2.362980883E0,2.903156791E0
7.495595833E0,-3.655026165E-1,-1.276951207E0,1.973803657E0,2.379095926E0
7.505623833E0,-3.682348377E-1,-7.849866548E-1,1.342661047E0,1.598292724E0
7.515651833E0,-4.350791655E-2,-3.411177173E-1,5.140041697E-1,6.184290762E-1
7.525679833E0,5.340777707E-1,-4.287902109E-2,-4.562225693E-1,7.037163550E-1
7.535707833E0,1.009721392E0,1.264449421E-1,-1.341449504E0,1.683749502E0
7.545735833E0,1.213020894E0,2.809358349E-1,-2.001712418E0,2.357370831E0
7.555763833E0,1.151015046E0,3.460754252E-1,-2.401785929E0,2.685736302E0
7.565791833E0,8.007468013E-1,3.359314562E-1,-2.324144261E0,2.481066692E0
7.575820833E0,2.877693296E-1,2.689950165E-1,-1.847476902E0,1.889005137E0
7.585848833E0,-1.924390848E-1,1.161517595E-1,-1.525318708E0,1.541791554E0
7.595876833E0,-4.883070456E-1,-6.296464540E-2,-1.538904129E0,1.615745721E0
7.605904833E0,-6.954273377E-1,-2.026087998E-1,-1.658583770E0,1.809853483E0
7.615932833E0,-8.640222993E-1,-3.484468366E-1,-2.093316067E0,2.291270802E0
7.625960833E0,-9.135164948E-1,-4.621221541E-1,-2.798570967E0,2.979944417E0
7.635988833E0,-7.512627655E-1,-4.838608959E-1,-3.499029395E0,3.611332693E0
7.646016833E0,-5.491996936E-1,-3.309027777E-1,-4.010436231E0,4.061368700E0
7.656044833E0,-4.007671376E-1,-1.131425996E-1,-4.483370728E0,4.502669056E0
7.666072833E0,-2.559062435E-1,5.449710969E-2,-4.784103554E0,4.791252942E0
7.676100833E0,-1.296616416E-1,1.401416793E-1,-4.953174625E0,4.956852903E0
7.686128833E0,2.620320059E-2,1.139339472E-1,-5.021899289E0,5.023259900E0
7.696156833E0,9.493268900E-2,-6.713480651E-3,-4.807525746E0,4.808467644E0
7.706184833E0,-3.599209741E-2,-1.914072157E-1,-4.070805809E0,4.075462194E0
7.716212833E0,-2.667064529E-1,-4.310062326E-1,-2.986661276E0,3.029363676E0
7.726241833E0,-3.292709294E-1,-6.343723930E-1,-2.034673172E0,2.156558044E0
7.736269833E0,-3.613855189E-1,-8.745370549E-1,-1.552127023E0,1.817831909E0
7.746297833E0,-4.489012341E-1,-1.005899652E0,-1.363970055E0,1.753214402E0
7.756325833E0,-5.899389627E-1,-8.415180474E-1,-1.188814956E0,1.571452068E0
7.766353833E0,-8.086034857E-1,-5.369512752E-1,-9.844436592E-1,1.382492527E0
7.776381083E0,-1.004995160E0,-2.245485762E-1,-6.274448311E-1,1.205870786E0
7.786409083E0,-1.044341513E0,-3.877529897E-2,-2.330501354E-1,1.070731099E0
7.796437083E0,-1.091087225E0,-6.764673024E-2,1.932370287E-1,1.110129705E0
7.806465083E0,-1.142380828E0,-1.701116563E-1,7.225071090E-1,1.362346672E0
7.816493083E0,-1.053560160E0,-3.588656247E-1,1.453462275E0,1.830662758E0
7.826521083E0,-8.886232898E-1,-6.349133335E-1,2.328899217E0,2.572263177E0
7.836549083E0,-6.691821834E-1,-8.819063008E-1,3.088204023E0,3.280635244E0
7.846577083E0,-4.129122430E-1,-9.787485442E-1,3.689538113E0,3.839418800E0
7.856605083E0,-1.798492620E-1,-9.559503235E-1,4.060593063E0,4.175476356E0
7.866633083E0,-4.576937288E-2,-7.971126837E-1,4.124359288E0,4.200931207E0
7.876661083E0,6.505643198E-2,-6.008334218E-1,3.953311858E0,3.999238401E0
7.886689083E0,2.471899819E-1,-6.974015770E-1,3.844578790E0,3.915131916E0
7.896718083E0,3.460608072E-1,-8.261641362E-1,3.902393720E0,4.003870878E0
7.906746083E0,1.672777301E-1,-5.944212189E-1,4.124951611E0,4.170916472E0
7.916774083E0,3.141002736E-2,-3.407497812E-1,3.996502317E0,4.011125499E0
7.926802083E0,1.971715470E-1,-3.197063830E-1,3.556445544E0,3.576226181E0
7.936830083E0,3.818017667E-1,-2.749710171E-1,3.007651611E0,3.044232229E0
7.946858083E0,3.748816600E-1,-2.660746247E-2,2.548887842E0,2.576445894E0
7.956886083E0,1.341912055E-1,2.008999876E-1,2.235254304E0,2.248272645E0
7.966914083E0,-1.153641030E-1,2.348076257E-1,1.933205270E0,1.950827033E0
7.976942083E0,-1.696665004E-1,-1.546121859E-1,1.590567203E0,1.607045636E0
7.986970083E0,-3.377380997E-2,-7.229881887E-1,1.330052111E0,1.514229576E0
7.996998083E0,1.871241667E-1,-1.071078784E0,1.182815713E0,1.606635685E0
8.007026083E0,3.498071913E-1,-1.099748632E0,1.155996873E0,1.633444488E0
8.017054083E0,2.810979672E-1,-9.050799859E-1,1.284477158E0,1.596266713E0
8.027082083E0,2.711547404E-1,-5.604241184E-1,1.410205159E0,1.541518302E0
8.037110083E0,5.067838085E-1,-2.588192533E-1,1.209564385E0,1.336736039E0
8.047138083E0,8.625030465E-1,-1.362791914E-1,5.879860657E-1,1.052716076E0
8.057167083E0,1.181689831E0,-1.062125527E-1,-1.274143374E-1,1.193275483E0
8.067195083E0,1.467152654E0,-8.576637447E-2,-7.211622494E-1,1.637060711E0
8.077223083E0,1.668838032E0,2.132954635E-3,-1.103342696E0,2.000597419E0
8.087251083E0,1.758130570E0,1.243842737E-1,-1.397984478E0,2.249634448E0
8.097279083E0,1.672833288E0,2.767972487E-1,-1.664402334E0,2.375967815E0
8.107307083E0,1.424197838E0,3.489037965E-1,-2.024553396E0,2.499777949E0
8.117335083E0,1.165059765E0,3.329187515E-1,-2.468794436E0,2.750117292E0
8.127363083E0,9.380838637E-1,2.977085364E-1,-2.875934308E0,3.039675945E0
8.137391083E0,7.131083677E-1,2.888569117E-1,-3.134905150E0,3.227939305E0
8.147419083E0,5.072703700E-1,2.178382019E-1,-3.278639066E0,3.324793353E0
8.157447083E0,3.781699879E-1,1.145761542E-1,-3.371495774E0,3.394572726E0
8.167475083E0,3.112482759E-1,9.788140330E-2,-3.504925727E0,3.520079631E0
8.177503083E0,3.186018074E-1,2.133685171E-1,-3.618060579E0,3.638323184E0
8.187531083E0,3.793771456E-1,4.116160615E-1,-3.609307882E0,3.652459197E0
8.197559083E0,5.565981756E-1,6.375229459E-1,-3.511010925E0,3.611569568E0
8.207587083E0,8.014456898E-1,7.930059649E-1,-3.489705425E0,3.667317495E0
8.217615083E0,9.341781429E-1,9.165612862E-1,-3.450497505E0,3.690353157E0
8.227644083E0,8.996400288E-1,9.360334644E-1,-3.304496039E0,3.550380951E0
8.237672083E0,7.371678329E-1,8.501757272E-1,-2.996758833E0,3.201058994E0
8.247700083E0,5.697984476E-1,7.142010661E-1,-2.679556739E0,2.831038282E0
8.257728083E0,4.174739483E-1,6.428533407E-1,-2.400698347E0,2.520098702E0
8.267756083E0,2.817578255E-1,6.953495698E-1,-1.998494695E0,2.134684881E0
8.277784083E0,4.230674313E-2,6.873097213E-1,-1.111254564E0,1.307314507E0
8.287812083E0,-1.461901306E-1,7.873455678E-1,-5.784533501E-2,8.028889588E-1
8.297840083E0,-7.367175607E-2,1.053512871E0,7.663623959E-1,1.304847968E0
8.307868083E0,2.671150636E-1,1.353962838E0,1.170476333E0,1.809580247E0
8.317896083E0,6.932719810E-1,1.757265620E0,1.319289141E0,2.304155450E0
8.327924083E0,9.130269367E-1,2.013411234E0,1.245707780E0,2.537563961E0
8.337952083E0,9.777146834E-1,2.056825349E0,1.259802493E0,2.602606163E0
8.347980083E0,8.628974412E-1,1.878186625E0,1.553873001E0,2.585865096E0
8.358008083E0,6.956096247E-1,1.674942233E0,2.025656181E0,2.718931260E0
8.368036083E0,6.867298237E-1,1.375865923E0,2.723839458E0,3.127923637E0
8.378064083E0,6.502406399E-1,1.052699011E0,3.368528312E0,3.588589011E0
8.388092083E0,5.757690030E-1,7.938709874E-1,3.865907679E0,3.988355961E0
8.398121083E0,4.552952740E-1,5.538602534E-1,4.162114760E0,4.223417365E0
8.408149083E0,4.367640224E-1,3.811780880E-1,4.248407384E0,4.287776212E0
8.418177083E0,5.820819128E-1,1.234632276E-1,4.021154763E0,4.064941346E0
8.428205083E0,6.665700129E-1,-2.361069866E-1,3.642345235E0,3.710355900E0
8.438233083E0,5.555412913E-1,-3.974759591E-1,3.426600519E0,3.494024096E0
8.448261083E0,2.277122122E-1,-3.260612831E-1,3.282407597E0,3.306413229E0
8.458289083E0,-5.078155132E-2,-3.161895751E-1,2.958516873E0,2.975798498E0
8.468317083E0,-1.860319617E-1,-4.718925957E-1,2.673014290E0,2.720716065E0
8.478345083E0,-4.300808376E-1,-4.622517065E-1,2.556619030E0,2.633428760E0
8.488373083E0,-6.419853947E-1,-3.028088068E-1,2.515097952E0,2.613341946E0
8.498401083E0,-6.989205375E-1,-2.275866432E-1,2.470121169E0,2.577165922E0
8.508429083E0,-6.747817694E-1,-2.991584632E-1,2.298490772E0,2.414101499E0
8.518457083E0,-7.090963007E-1,-4.961689925E-1,1.953033178E0,2.136197516E0
8.528485083E0,-6.797228128E-1,-7.311291940E-1,1.518430104E0,1.817196462E0
8.538513083E0,-5.557084852E-1,-9.385355611E-1,1.231893733E0,1.645364120E0
8.548541083E0,-4.810270429E-1,-1.099649887E0,1.013649917E0,1.571019747E0
8.558569083E0,-5.631325852E-1,-1.144725050E0,8.579818332E-1,1.537415550E0
8.568597083E0,-6.532491785E-1,-1.098385939E0,7.155910224E-1,1.464669475E0
8.578626083E0,-6.227968794E-1,-9.505705196E-1,4.048857701E-1,1.206396598E0
8.588654083E0,-4.137438633E-1,-8.788645061E-1,-1.605236113E-1,9.845580909E-1
8.598682083E0,-1.729204028E-1,-8.485453042E-1,-8.243509877E-1,1.195610785E0
8.608710083E0,-2.871489035E-2,-7.304731364E-1,-1.402671606E0,1.581740555E0
8.618738083E0,-6.539635621E-2,-5.872061934E-1,-1.841317445E0,1.933788440E0
8.628766083E0,-1.611570109E-1,-4.786813592E-1,-2.189786940E0,2.247281528E0
8.638794083E0,-2.161548798E-1,-3.187188613E-1,-2.422165815E0,2.452588811E0
8.648822083E0,-2.716317819E-1,-1.364317672E-1,-2.643254886E0,2.660675449E0
8.658850083E0,-4.050190501E-1,1.043099418E-2,-2.876286895E0,2.904681658E0
8.668878083E0,-5.161075228E-1,6.818832859E-2,-3.083427433E0,3.127065934E0
8.678906083E0,-5.761629226E-1,-7.608835548E-3,-3.320914435E0,3.370533236E0
8.688934083E0,-5.265286133E-1,-2.481350747E-1,-3.498276274E0,3.546370015E0
8.698962083E0,-4.493946660E-1,-4.821251500E-1,-3.446113263E0,3.508574760E0
8.708990083E0,-4.423447146E-1,-7.367641557E-1,-3.239324142E0,3.351374519E0
8.719018083E0,-4.028701983E-1,-9.653634636E-1,-3.149602126E0,3.318768532E0
8.729046083E0,-2.570648876E-1,-1.070240439E0,-3.280572740E0,3.460296874E0
8.739074083E0,-1.651591377E-1,-1.026923900E0,-3.431087088E0,3.585276676E0
8.749102083E0,-1.007384625E-1,-9.188492285E-1,-3.562243059E0,3.680218438E0
8.759131083E0,1.056840375E-1,-7.295737615E-1,-3.646189195E0,3.719965408E0
8.769159083E0,2.861481343E-1,-5.166913307E-1,-3.642572692E0,3.690147220E0
8.779186375E0,3.583398504E-1,-3.347928572E-1,-3.523095365E0,3.557062645E0
8.789214375E0,3.552679060E-1,-1.783218779E-1,-2.952678428E0,2.979316008E0
8.799242375E0,1.925035321E-1,-4.675967194E-2,-2.156467166E0,2.165547209E0
8.809270375E0,-4.541978247E-2,-2.437192574E-2,-1.419044979E0,1.419980845E0
8.819298375E0,-3.425234610E-1,-6.374195963E-3,-6.645179325E-1,7.476276041E-1
8.829326375E0,-4.798951681E-1,3.069715127E-2,3.050960183E-2,4.818428408E-1
8.839354375E0,-5.455870280E-1,8.609586507E-2,5.191520584E-1,7.580214791E-1
8.849382375E0,-6.666680268E-1,1.680834764E-1,8.355098140E-1,1.082023550E0
8.859410375E0,-6.457344832E-1,3.474051552E-1,1.134180912E0,1.350566439E0
8.869438375E0,-4.655484398E-1,4.234745072E-1,1.368104036E0,1.505913232E0
8.879466375E0,-2.166972091E-1,4.671951619E-1,1.381046848E0,1.473946877E0
8.889494375E0,1.688030859E-2,6.021798894E-1,1.434588633E0,1.555940265E0
8.899522375E0,3.209984715E-1,6.441164124E-1,1.660950723E0,1.810161118E0
8.909550375E0,5.894695774E-1,6.074082503E-1,1.987001408E0,2.159767061E0
8.919578375E0,7.195833550E-1,5.290005237E-1,2.629564215E0,2.777093754E0
8.929606375E0,7.731325214E-1,4.969207252E-1,3.469057152E0,3.588735380E0
8.939634375E0,7.526254591E-1,3.856945505E-1,4.078154005E0,4.164918422E0
8.949663375E0,7.074921902E-1,1.352767228E-1,4.434081039E0,4.492206546E0
8.959691375E0,7.019149697E-1,-2.027525682E-1,4.442270649E0,4.501950882E0
8.969719375E0,8.931813405E-1,-5.101757053E-1,4.207786192E0,4.331687522E0
8.979747375E0,1.036164621E0,-5.031066408E-1,4.112259060E0,4.270530177E0
8.989775375E0,6.652419640E-1,1.021999010E-1,4.053310356E0,4.108809624E0
8.999803375E0,1.224525181E-1,8.113420292E-1,3.748202058E0,3.836963536E0
9.009831375E0,-9.491730351E-2,1.072707379E0,3.107871718E0,3.289160536E0
9.019859375E0,-4.231053469E-2,1.117186710E0,2.304852542E0,2.561687250E0
9.029887375E0,-1.452296340E-1,1.058635836E0,1.362274947E0,1.731356263E0
9.039915375E0,-2.526124339E-1,7.633750534E-1,5.301196808E-1,9.631102688E-1
9.049943375E0,-8.015500261E-2,1.738445187E-1,-4.459495962E-2,1.965590282E-1
9.059971375E0,2.670871066E-3,-5.186416695E-1,-3.979305071E-1,6.537163019E-1
9.069999375E0,-1.016020049E-1,-1.069319137E0,-4.754265797E-1,1.174647529E0
9.080027375E0,-1.590881564E-1,-1.468298416E0,-2.099787766E-1,1.491744068E0
9.090055375E0,-3.065396228E-1,-1.734599912E0,4.336534864E-1,1.814072419E0
9.100083375E0,-5.218861433E-1,-1.674387917E0,1.163928621E0,2.104915646E0
9.110111375E0,-6.690463087E-1,-1.448452381E0,1.732847502E0,2.355503710E0
9.120139375E0,-5.764117947E-1,-1.249690172E0,1.791371698E0,2.258979558E0
9.130167375E0,-3.227170412E-1,-1.005614527E0,1.106990774E0,1.529978902E0
9.140196375E0,-1.074788586E-1,-7.084741569E-1,-7.434091508E-2,7.204261987E-1
9.150224375E0,9.685983991E-2,-3.670213211E-1,-1.048497568E0,1.115093551E0
9.160252375E0,2.706368050E-1,-3.833785415E-2,-1.582238429E0,1.605675097E0
9.170280375E0,3.117506614E-1,2.285054601E-1,-1.771805745E0,1.813476997E0
9.180308375E0,1.574944978E-1,3.491561770E-1,-1.867441050E0,1.906318607E0
9.190336375E0,-3.580392670E-2,3.026574370E-1,-2.091986411E0,2.114069674E0
9.200364375E0,-8.904288003E-2,1.491197135E-1,-2.547462875E0,2.553376671E0
9.210392375E0,-1.769098850E-2,4.111425832E-2,-3.003746256E0,3.004079713E0
9.220420375E0,5.422352852E-2,-4.151084572E-3,-3.303182169E0,3.303629802E0
9.230448375E0,4.660835696E-2,-8.052332237E-2,-3.501292267E0,3.502528214E0
9.240476375E0,-1.742320430E-2,-1.100174821E-1,-3.557271756E0,3.559015280E0
9.250504375E0,6.756563667E-2,-4.726297103E-2,-3.516648225E0,3.517614766E0
9.260532375E0,1.904714784E-1,7.633693524E-2,-3.397729307E0,3.403919969E0
9.270560375E0,3.114992676E-1,2.594319684E-1,-3.217233946E0,3.242673435E0
9.280588375E0,4.221559601E-1,4.236075313E-1,-3.101429256E0,3.158563348E0
9.290616375E0,3.904458152E-1,4.730915672E-1,-3.121008657E0,3.180716681E0
9.300644375E0,2.936130369E-1,4.023540719E-1,-3.084710897E0,3.124666179E0
9.310672375E0,1.732826744E-1,3.519653255E-1,-2.824091724E0,2.851210364E0
9.320700375E0,4.610806371E-2,2.753451658E-1,-2.430837820E0,2.446816998E0
9.330728375E0,-7.147623166E-2,1.409264488E-1,-1.898000354E0,1.904566738E0
9.340757375E0,-1.087222508E-1,9.241933644E-2,-1.455715207E0,1.462692253E0
9.350785375E0,-1.213462066E-1,2.106308873E-1,-1.285282905E0,1.308068201E0
9.360813375E0,-8.187380992E-3,4.861849449E-1,-1.025599287E0,1.135031599E0
9.370841375E0,2.062522364E-1,8.751619030E-1,-4.825654453E-1,1.020449779E0
9.380869375E0,4.511930137E-1,1.324023632E0,-2.067575455E-3,1.398791617E0
9.390897375E0,7.753187223E-1,1.589040203E0,2.351516247E-1,1.783665937E0
9.400925375E0,1.051327913E0,1.738747342E0,4.718931073E-1,2.085956808E0
9.410953375E0,1.020872471E0,1.818452201E0,7.820808810E-1,2.227240335E0
9.420981375E0,8.998969408E-1,1.717100950E0,1.121073793E0,2.239432211E0
9.431009375E0,8.356728052E-1,1.423556983E0,1.739161325E0,2.397821018E0
9.441037375E0,8.016075846E-1,1.039654239E0,2.708288203E0,3.009697767E0
9.451065375E0,7.272008152E-1,6.368482503E-1,3.883700171E0,4.002189868E0
9.461093375E0,6.846478495E-1,3.017303610E-1,5.171393883E0,5.225236701E0
9.471121375E0,6.288880701E-1,7.562211312E-2,6.113906574E0,6.146630988E0
9.481149375E0,7.487108213E-1,8.261903755E-2,6.318066786E0,6.362810834E0
9.491177375E0,1.056912223E0,1.605327476E-1,5.768743680E0,5.866961552E0
9.501205375E0,1.298850345E0,1.369300231E-1,4.722054656E0,4.899343040E0
9.511233375E0,1.180629366E0,1.475538292E-1,3.434375562E0,3.634637992E0
9.521261375E0,6.975365015E-1,2.449068269E-1,2.384530211E0,2.496501723E0
9.531289375E0,2.859174068E-1,2.062897682E-1,1.730605679E0,1.766154084E0
9.541317375E0,-3.323871665E-2,-5.780827828E-2,1.295703228E0,1.297417999E0
9.551346375E0,-4.901438753E-1,-2.986199346E-1,9.107973933E-1,1.076553192E0
9.561374375E0,-9.283994128E-1,-3.871622747E-1,8.513633698E-1,1.317816256E0
9.571402375E0,-1.209246882E0,-5.191220914E-1,1.024050359E0,1.667466613E0
9.581430375E0,-1.311876918E0,-8.248577220E-1,1.221330153E0,1.973083539E0
9.591458375E0,-1.268000435E0,-1.273493456E0,1.632705163E0,2.428031473E0
9.601486375E0,-1.041560943E0,-1.734073809E0,2.062632803E0,2.888999005E0
9.611514375E0,-6.485104488E-1,-1.886667280E0,2.194588673E0,2.965855471E0
9.621542375E0,-1.993995189E-1,-1.781693241E0,2.020258031E0,2.701043037E0
9.631570375E0,1.258133332E-1,-1.421505195E0,1.629044806E0,2.165708428E0
9.641598375E0,1.703897279E-1,-8.763276916E-1,1.105784494E0,1.421176354E0
9.651626375E0,6.599498319E-2,-3.662707579E-1,6.381750566E-1,7.387672223E-1
9.661654375E0,3.641779298E-2,-1.234334068E-1,1.964044654E-1,2.348122135E-1
9.671682375E0,8.399691565E-2,-1.820549597E-1,-2.849225396E-1,3.483968194E-1
9.681710375E0,7.212955294E-2,-3.590553669E-1,-8.423335147E-1,9.185037718E-1
9.691738375E0,-1.034462167E-1,-5.131324229E-1,-1.256213472E0,1.360910831E0
9.701766375E0,-3.836724006E-1,-6.615738595E-1,-1.564217895E0,1.741166881E0
9.711794375E0,-5.838796758E-1,-8.269398424E-1,-1.918896548E0,2.169541182E0
9.721822375E0,-7.227767388E-1,-8.903575008E-1,-2.390813629E0,2.651628274E0
9.731850375E0,-7.295837018E-1,-7.740423482E-1,-2.828145014E0,3.021562204E0
9.741878375E0,-5.937085530E-1,-5.692715404E-1,-3.228609704E0,3.331738368E0
9.751906375E0,-3.580543236E-1,-3.572113743E-1,-3.623910134E0,3.659033687E0
9.761934375E0,-1.449984498E-1,-1.657859592E-1,-4.052399359E0,4.058380231E0
9.771963375E0,-1.762401961E-2,1.463967383E-2,-4.426258049E0,4.426317345E0
9.781992333E0,2.514913034E-2,1.982424646E-1,-4.614144875E0,4.618470037E0
9.792020333E0,-6.702188216E-2,3.411527275E-1,-4.506830342E0,4.520220885E0
9.802048333E0,-1.671092938E-1,3.871913646E-1,-4.295346492E0,4.315998628E0
9.812076333E0,-2.639384906E-1,3.197647820E-1,-4.017566911E0,4.038905412E0
9.822104333E0,-2.950576647E-1,2.847825719E-1,-3.641258238E0,3.664276422E0
9.832132333E0,-3.029864891E-1,2.949615511E-1,-3.230047535E0,3.257608050E0
9.842160333E0,-3.818451457E-1,3.324726820E-1,-2.671532021E0,2.719085717E0
9.852188333E0,-3.924552840E-1,3.107377774E-1,-1.991332440E0,2.053286148E0
9.862216333E0,-3.785163624E-1,3.678603235E-1,-1.266740214E0,1.372307045E0
9.872244333E0,-4.272782671E-1,5.312113559E-1,-6.527679527E-1,9.438528605E-1
9.882272333E0,-4.937012117E-1,6.150925150E-1,-1.597184497E-1,8.047295643E-1
9.892300333E0,-5.962171912E-1,6.730846882E-1,2.110377073E-1,9.236096851E-1
9.902328333E0,-6.859544098E-1,7.417857445E-1,4.219286495E-1,1.094898775E0
9.912356333E0,-6.978735935E-1,6.473351584E-1,3.888375020E-1,1.028233905E0
9.922384333E0,-6.668513370E-1,4.867856001E-1,1.949134254E-1,8.483172576E-1
9.932412333E0,-6.386872727E-1,3.175394779E-1,2.369092977E-1,7.515841720E-1
9.942440333E0,-6.862907709E-1,6.065718792E-2,5.068594569E-1,8.553249825E-1
9.952468333E0,-7.008961654E-1,-1.775490953E-1,1.057661324E0,1.281181717E0
9.962496333E0,-6.367380302E-1,-3.499762490E-1,1.542249321E0,1.704831858E0
9.972524333E0,-4.425729022E-1,-4.392570924E-1,1.947744371E0,2.045122418E0
9.982552333E0,-1.460776996E-1,-4.290531164E-1,2.441935251E0,2.483641085E0
9.992580333E0,1.462949602E-1,-3.562156666E-1,3.006840602E0,3.031399384E0
1.000260833E1,3.011475215E-1,-3.318169168E-1,3.501716775E0,3.530270906E0
1.001263733E1,3.065161243E-1,-4.169960115E-1,3.790540577E0,3.825707212E0
1.002266533E1,3.278843719E-1,-4.934878249E-1,3.715540681E0,3.762483348E0
1.003269333E1,3.276566959E-1,-4.920429779E-1,3.627000972E0,3.674860712E0
1.004272133E1,4.145486594E-1,-6.242791486E-1,3.594869937E0,3.672147180E0
1.005274933E1,5.590417270E-1,-6.590123405E-1,3.761350107E0,3.859349627E0
1.006277733E1,3.857246637E-1,-1.596854495E-1,3.866005327E0,3.888480442E0
1.007280533E1,1.005871293E-1,4.384023391E-1,3.497662316E0,3.526465094E0
1.008283333E1,5.792580731E-4,6.575005428E-1,2.900197329E0,2.973794184E0
1.009286133E1,3.766959049E-2,7.379925826E-1,2.459380419E0,2.567996124E0
1.010288933E1,-4.447467143E-2,8.293699452E-1,2.123367832E0,2.280027073E0
1.011291733E1,-1.652982283E-1,6.914946467E-1,1.632404031E0,1.780514328E0
1.012294533E1,-2.007672192E-1,2.293792534E-1,9.334495068E-1,9.819624738E-1
1.013297333E1,-2.263388840E-1,-3.128025024E-1,3.545318878E-1,5.241827499E-1
1.014300133E1,-2.235879517E-1,-7.308044542E-1,1.456038558E-1,7.779892064E-1
1.015302933E1,-2.096182957E-2,-1.089825688E0,9.391797781E-2,1.094065818E0
1.016305733E1,3.112662561E-1,-1.238352859E0,2.512723982E-2,1.277120145E0
1.017308533E1,5.954287673E-1,-1.100838480E0,1.079618204E-1,1.256199240E0
1.018311333E1,7.551164460E-1,-7.779238030E-1,2.427582675E-1,1.110989589E0
1.019314133E1,8.807933564E-1,-4.140277456E-1,2.624949592E-1,1.008027537E0
1.020316933E1,1.066348532E0,-1.775708031E-1,8.021970570E-2,1.084004513E0
1.021319733E1,1.101068276E0,-1.196107165E-1,-3.054082596E-1,1.148883056E0
1.022322533E1,9.926470835E-1,-1.269554771E-1,-8.233066750E-1,1.295878006E0
1.023325333E1,7.655108220E-1,-1.246228036E-1,-1.274259734E0,1.491735744E0
1.024328133E1,4.497791570E-1,-1.131037887E-1,-1.461355432E0,1.533184090E0
1.025330933E1,2.083993888E-1,-1.077566562E-1,-1.499587451E0,1.517828820E0
1.026333733E1,1.365606252E-2,-1.324756873E-1,-1.776674722E0,1.781659160E0
1.027336533E1,-2.103405730E-1,-1.567408282E-1,-2.331371419E0,2.346082594E0
1.028339433E1,-2.669791158E-1,-9.944191553E-2,-2.851850211E0,2.866045389E0
1.029342233E1,-1.387190883E-1,-4.037867859E-2,-3.286864929E0,3.290038675E0
1.030345033E1,-5.329367962E-2,1.098123910E-1,-3.611333358E0,3.613395577E0
1.031347833E1,3.704518095E-2,3.117176977E-1,-3.747589855E0,3.760714026E0
1.032350633E1,2.056382422E-1,4.756935782E-1,-3.727346209E0,3.763200929E0
1.033353433E1,3.336387995E-1,5.147647463E-1,-3.571458271E0,3.623756583E0
1.034356233E1,4.033504009E-1,4.995220783E-1,-3.376915559E0,3.437407823E0
1.035359033E1,4.080779844E-1,4.265837641E-1,-3.200228489E0,3.254222446E0
1.036361833E1,3.456411598E-1,2.878069711E-1,-2.911905209E0,2.946437274E0
1.037364633E1,2.858192467E-1,7.540868975E-2,-2.494585335E0,2.512038038E0
1.038367433E1,2.753830996E-1,-4.912392050E-3,-2.146566076E0,2.164164019E0
1.039370233E1,3.273903918E-1,1.072874171E-1,-2.007411114E0,2.036760771E0
1.040373033E1,4.905867654E-1,2.859744537E-1,-2.064465905E0,2.141139005E0
1.041375833E1,6.302783918E-1,5.717579227E-1,-2.085817013E0,2.252729586E0
1.042378633E1,6.791958325E-1,9.153649458E-1,-1.844546862E0,2.168306503E0
1.043381433E1,7.674416457E-1,1.212439169E0,-1.470140288E0,2.054333928E0
1.044384233E1,7.938205551E-1,1.435675922E0,-1.167676687E0,2.013649739E0
1.045387033E1,7.255586978E-1,1.610759101E0,-8.952291816E-1,1.980508922E0
1.046389833E1,6.723448692E-1,1.635816905E0,-3.648726887E-1,1.805845134E0
1.047392633E1,6.606300458E-1,1.550111341E0,3.338391763E-1,1.717767686E0
1.048395433E1,6.451186252E-1,1.292741320E0,9.846541589E-1,1.748399833E0
1.049398233E1,6.346350060E-1,9.471689019E-1,1.438665311E0,1.835660208E0
1.050401033E1,6.598821138E-1,6.668381077E-1,1.859568944E0,2.082813992E0
1.051403833E1,6.900994279E-1,5.357303035E-1,2.244409874E0,2.408447604E0
1.052406633E1,8.099307306E-1,4.370787853E-1,2.598952287E0,2.757096052E0
1.053409433E1,8.319536106E-1,3.135558430E-1,2.942897791E0,3.074266007E0
1.054412233E1,8.633954047E-1,2.471219715E-1,3.358393918E0,3.476396209E0
1.055415033E1,1.005240159E0,2.133071214E-1,3.725060533E0,3.864205439E0
1.056417833E1,1.117331941E0,4.338232018E-2,3.909114509E0,4.065893375E0
1.057420633E1,1.092456423E0,-2.542341226E-1,4.028509975E0,4.181744689E0
1.058423533E1,9.264686622E-1,-5.097309880E-1,4.010929152E0,4.147978125E0
1.059426333E1,5.176867096E-1,-5.423464645E-1,4.031824177E0,4.100944453E0
1.060429133E1,1.098329476E-1,-5.875401425E-1,4.154846671E0,4.197620463E0
1.061431933E1,-1.272603912E-1,-8.207332423E-1,4.205053203E0,4.286288686E0
1.062434733E1,-4.213746990E-1,-8.456332447E-1,3.967934575E0,4.078867124E0
1.063437533E1,-8.466978765E-1,-6.481024593E-1,3.438791379E0,3.600308354E0
1.064440333E1,-1.127153436E0,-4.537679813E-1,2.742816011E0,2.999903318E0
1.065443133E1,-1.223765006E0,-4.285933790E-1,2.082233840E0,2.452955531E0
1.066445933E1,-1.155919690E0,-6.415000027E-1,1.472038879E0,1.978527494E0
1.067448733E1,-1.104464339E0,-1.005196889E0,9.175579441E-1,1.752762061E0
1.068451533E1,-1.099762739E0,-1.287838869E0,6.380470026E-1,1.809726778E0
1.069454333E1,-9.048710941E-1,-1.492830409E0,7.484289855E-1,1.899336798E0
1.070457133E1,-6.880741717E-1,-1.392563524E0,9.792074776E-1,1.836171702E0
1.071459933E1,-5.577865856E-1,-1.136429166E0,1.276583417E0,1.797849367E0
1.072462733E1,-3.744545209E-1,-7.784406238E-1,1.555191548E0,1.778990373E0
1.073465533E1,-2.759558527E-1,-5.123495173E-1,1.772179382E0,1.865281058E0
1.074468333E1,-1.014707349E-1,-4.178436020E-1,1.798039863E0,1.848739283E0
1.075471133E1,8.386913572E-2,-3.861177793E-1,1.299216819E0,1.357971029E0
1.076473933E1,6.701186880E-2,-2.669231653E-1,3.479490924E-1,4.436295049E-1
1.077476696E1,-5.229268198E-2,-7.795237474E-2,-7.181439167E-1,7.242525681E-1
1.078479496E1,-2.126108276E-1,8.604970861E-2,-1.642253081E0,1.658192721E0
1.079482296E1,-4.692888305E-1,1.637013172E-1,-2.320865142E0,2.373487969E0
1.080485096E1,-6.847017170E-1,2.020416564E-1,-2.840372711E0,2.928712074E0
1.081487896E1,-7.892303447E-1,1.595890070E-1,-3.270676913E0,3.368334997E0
1.082490696E1,-7.371002975E-1,1.035466975E-1,-3.598232086E0,3.674413275E0
1.083493496E1,-5.408299526E-1,8.021009434E-2,-3.825230353E0,3.864106359E0
1.084496296E1,-4.932428996E-1,7.713650543E-2,-3.895904480E0,3.927761489E0
1.085499096E1,-5.528623895E-1,6.847820431E-2,-3.778972446E0,3.819813979E0
1.086501896E1,-5.113188725E-1,2.287598871E-2,-3.552748350E0,3.589427689E0
1.087504696E1,-4.469002803E-1,-7.772557586E-3,-3.507873893E0,3.536235219E0
1.088507496E1,-4.833389588E-1,5.165375490E-2,-3.410309592E0,3.444778102E0
1.089510296E1,-5.733893324E-1,1.929164551E-2,-3.258511781E0,3.308632122E0
1.090513096E1,-6.472712776E-1,1.838960286E-2,-2.996919631E0,3.066076575E0
1.091515896E1,-6.311410754E-1,6.426707614E-2,-2.730440964E0,2.803172698E0
1.092518796E1,-5.747859399E-1,1.620224719E-1,-2.710523009E0,2.775529704E0
1.093521596E1,-3.702501902E-1,1.797525820E-1,-2.857602702E0,2.887090126E0
1.094524396E1,-1.332434998E-1,1.954787416E-1,-2.887946243E0,2.897619587E0
1.095527196E1,5.188758871E-2,2.305325801E-1,-2.635083402E0,2.645657220E0
1.096529996E1,1.778775626E-1,2.698550688E-1,-2.231799184E0,2.255080882E0
1.097532796E1,1.614488601E-1,2.554905431E-1,-1.636822772E0,1.664490895E0
1.098535596E1,2.480349594E-2,2.095782058E-1,-9.147407556E-1,9.387698800E-1
1.099538396E1,-2.845576733E-1,1.326376551E-1,-1.454945129E-1,3.460266902E-1
1.100541196E1,-6.706313427E-1,5.020971190E-2,6.749049264E-1,9.527665363E-1
1.101543996E1,-8.492012887E-1,4.686152313E-2,1.347130074E0,1.593141007E0
1.102546796E1,-7.689907193E-1,3.460999835E-2,1.709770880E0,1.875062943E0
1.103549596E1,-5.661244593E-1,8.350847214E-3,1.846912061E0,1.931748121E0
1.104552396E1,-3.354610112E-1,-1.820165142E-2,1.820947500E0,1.851679018E0
1.105555196E1,-9.809125439E-2,-6.117415488E-2,1.884433644E0,1.887976252E0
1.106557996E1,1.336837403E-1,-8.557107747E-2,2.216556078E0,2.222231895E0
1.107560796E1,2.639705955E-1,-1.820295974E-1,2.768269526E0,2.786777963E0
1.108563596E1,2.885180290E-1,-3.708217189E-1,3.409996766E0,3.442212856E0
1.109566396E1,2.421598233E-1,-6.394246066E-1,4.238504539E0,4.293300122E0
1.110569196E1,2.538991868E-1,-8.010304644E-1,4.701304057E0,4.775811390E0
1.111571996E1,5.437760722E-1,-9.435874093E-1,4.412500135E0,4.544910017E0
1.112574796E1,1.076285583E0,-1.086768252E0,3.857684155E0,4.149841313E0
1.113577596E1,1.293258068E0,-9.262425942E-1,3.747079977E0,4.070755474E0
1.114580396E1,9.634631185E-1,-3.032048826E-1,3.580682253E0,3.720413926E0
1.115583196E1,5.637860847E-1,2.635626974E-1,2.989452737E0,3.053546743E0
1.116585996E1,3.841993444E-1,5.763812065E-1,2.319734876E0,2.420949054E0
1.117588796E1,1.838294435E-1,8.218985192E-1,1.825392553E0,2.010315501E0
1.118591596E1,-9.067969842E-2,9.701599346E-1,1.450501245E0,1.747394337E0
1.119594396E1,-1.669894076E-1,7.306521343E-1,1.042120010E0,1.283647973E0
1.120597196E1,-1.329428433E-1,7.934927456E-2,5.618455034E-1,5.827868192E-1
1.121599996E1,-1.263806045E-1,-5.447444442E-1,2.233431727E-1,6.021633827E-1
1.122602796E1,-2.222178943E-1,-1.111837970E0,1.436269122E-1,1.142888076E0
1.123605596E1,-2.741159532E-1,-1.712647418E0,2.171205658E-1,1.747982287E0
1.124608396E1,-2.262437936E-1,-2.006653607E0,5.504738384E-1,2.093051934E0
1.125611196E1,-2.442136212E-1,-1.756237534E0,9.727919126E-1,2.022457582E0
1.126613996E1,-2.674734796E-1,-1.256119624E0,1.189422482E0,1.750458343E0
1.127616796E1,-1.450379276E-1,-7.309719039E-1,1.063476965E0,1.298591229E0
1.128619596E1,4.628367204E-2,-3.787347559E-1,5.227638835E-1,6.471972431E-1
1.129622396E1,2.076461761E-1,-1.416684604E-1,-2.144390327E-1,3.304103295E-1
1.130625196E1,2.940204052E-1,3.426936150E-2,-7.358136177E-1,7.931229840E-1
1.131627996E1,2.222993168E-1,1.770315436E-1,-9.344072807E-1,9.766647940E-1
1.132630796E1,1.030606842E-1,2.550276994E-1,-1.022599080E0,1.058947360E0
1.133633596E1,-3.242765302E-2,1.787607115E-1,-1.324272138E0,1.336676341E0
1.134636396E1,-1.046758862E-1,1.414502862E-1,-1.910091811E0,1.918180375E0
1.135639196E1,-1.286110432E-1,1.550235741E-1,-2.480211124E0,2.488377048E0
1.136641996E1,-1.225095285E-1,8.853042640E-2,-3.036197133E0,3.039957113E0
1.137644896E1,-4.744100047E-2,9.119244441E-3,-3.512856891E0,3.513189056E0
1.138647696E1,5.030535042E-2,-1.344728038E-2,-3.863013307E0,3.863364242E0
1.139650496E1,1.907315334E-1,5.882927522E-2,-4.070825105E0,4.075715451E0
1.140653296E1,4.352243043E-1,2.105062685E-1,-4.131773558E0,4.159962237E0
1.141656096E1,6.129187395E-1,3.819278473E-1,-4.131525051E0,4.194167082E0
1.142658896E1,6.216803536E-1,5.052132464E-1,-4.091849354E0,4.169527314E0
1.143661696E1,6.299883699E-1,5.756395237E-1,-3.846287931E0,3.939819419E0
1.144664496E1,5.034857962E-1,6.273064714E-1,-3.293527247E0,3.390329347E0
1.145667296E1,1.925539277E-1,6.446213195E-1,-2.875105172E0,2.952768771E0
1.146670096E1,4.651227990E-2,6.006329354E-1,-2.644884505E0,2.712625547E0
1.147672896E1,3.689026628E-2,5.661371405E-1,-2.463809100E0,2.528285473E0
1.148675696E1,-6.989149461E-2,4.860874426E-1,-1.945939921E0,2.006949924E0
1.149678496E1,-3.360234768E-1,3.469562352E-1,-1.141981682E0,1.239924420E0
1.150681296E1,-4.214336827E-1,3.131210294E-1,-5.845525807E-1,7.857180459E-1
1.151684096E1,-2.577349054E-1,5.009383471E-1,-3.970540094E-1,6.892157829E-1
1.152686896E1,-6.966164421E-2,9.300598758E-1,-5.490307456E-1,1.082265622E0
1.153689696E1,9.200555457E-2,1.408060400E0,-6.382534093E-1,1.548698333E0
1.154692496E1,2.957626927E-1,1.755223919E0,-4.927664977E-1,1.846917810E0
1.155695296E1,4.772879677E-1,1.946821534E0,-7.973731041E-2,2.006059802E0
1.156698096E1,5.971291010E-1,1.989320706E0,3.889977157E-1,2.113120739E0
1.157700896E1,7.563698698E-1,1.863071280E0,6.768456173E-1,2.121614942E0
1.158703696E1,7.136807370E-1,1.618238128E0,1.084842106E0,2.074829446E0
1.159706496E1,6.791776331E-1,1.330877153E0,1.704604865E0,2.266758479E0
1.160709296E1,6.387926687E-1,1.073370308E0,2.581815267E0,2.868091694E0
1.161712096E1,6.136838476E-1,8.817615822E-1,3.667715135E0,3.821811830E0
1.162714896E1,5.268323761E-1,8.795618597E-1,4.786834204E0,4.895402242E0
1.163717696E1,5.972620887E-1,1.034744624E0,5.397886366E0,5.528525631E0
1.164720496E1,8.398037168E-1,1.244822511E0,5.326878363E0,5.534481590E0
1.165723296E1,1.128806663E0,1.276756202E0,4.989323282E0,5.272348404E0
1.166726096E1,1.276939220E0,1.089957908E0,4.620628853E0,4.916176666E0
1.167728896E1,1.085050267E0,9.300554173E-1,4.264779003E0,4.497852499E0
1.168731696E1,7.308604413E-1,7.273610289E-1,3.744986089E0,3.884344457E0
1.169734496E1,3.092756812E-1,2.891216444E-1,2.915246308E0,2.945828204E0
1.170737296E1,-1.469273731E-2,-2.267531957E-1,2.198635531E0,2.210346373E0
1.171740096E1,-4.422848903E-1,-5.832827847E-1,1.902217950E0,2.038202115E0
1.172742896E1,-9.284472138E-1,-6.183364040E-1,2.034470274E0,2.320220557E0
1.173745696E1,-1.169795060E0,-5.139280097E-1,2.126664492E0,2.480976490E0
1.174748496E1,-1.132558602E0,-4.930343002E-1,1.887561904E0,2.255806231E0
1.175751296E1,-8.356468581E-1,-5.540644674E-1,1.539384770E0,1.837116920E0
1.176754096E1,-3.638945226E-1,-6.218105272E-1,1.234593977E0,1.429436897E0
1.177756921E1,1.356235724E-1,-6.823215348E-1,1.102106010E0,1.303301227E0
1.178759721E1,5.576154449E-1,-7.748168850E-1,1.063305641E0,1.428948941E0
1.179762521E1,7.250627808E-1,-8.916958554E-1,1.065974895E0,1.567526718E0
1.180765321E1,6.188123674E-1,-8.678126107E-1,1.116585470E0,1.543629031E0
1.181768121E1,4.416826636E-1,-7.799567337E-1,1.220602759E0,1.514360320E0
1.182770921E1,3.163944104E-1,-7.804898536E-1,1.210216935E0,1.474413396E0
1.183773721E1,1.384490931E-1,-8.772190265E-1,6.696026713E-1,1.112227094E0
1.184776521E1,-1.369631877E-1,-8.517083555E-1,-1.756690693E-1,8.803554166E-1
1.185779321E1,-3.351990925E-1,-7.585756588E-1,-9.721528119E-1,1.277840581E0
1.186782121E1,-4.987141028E-1,-6.923085791E-1,-1.699345880E0,1.901521323E0
1.187784921E1,-6.984707404E-1,-5.939980267E-1,-2.301916655E0,2.477804536E0
1.188787721E1,-8.549819192E-1,-4.486206043E-1,-2.802641214E0,2.964296257E0
1.189790521E1,-9.363275063E-1,-2.478358434E-1,-3.200885131E0,3.344218508E0
1.190793321E1,-7.667110361E-1,-1.364642192E-1,-3.550238725E0,3.634647617E0
1.191796121E1,-4.595374290E-1,-9.691482201E-2,-3.831124932E0,3.859803800E0
1.192798921E1,-2.074690968E-1,-1.163569602E-1,-3.992910957E0,3.999990035E0
1.193801721E1,-3.164911453E-2,-1.360326947E-1,-4.005408211E0,4.007842499E0
1.194804521E1,1.335337775E-2,-1.228394759E-1,-3.949674305E0,3.951606631E0
1.195807321E1,-3.295876293E-2,-7.112465411E-2,-3.770902703E0,3.771717407E0
1.196810121E1,-1.096387379E-1,-5.701313004E-2,-3.433338266E0,3.435561497E0
1.197812921E1,-2.737784044E-1,-1.302170540E-1,-3.219895014E0,3.234135897E0
1.198815721E1,-4.472822132E-1,-2.258294088E-1,-3.159745876E0,3.199227141E0
1.199818521E1,-4.757984261E-1,-2.817543720E-1,-3.132732909E0,3.181160975E0
1.200821421E1,-5.281001621E-1,-3.158921711E-1,-3.011560475E0,3.073788239E0
1.201824121E1,-6.096195211E-1,-3.333936185E-1,-2.841508825E0,2.925228140E0
1.202827021E1,-6.265541540E-1,-3.220301396E-1,-2.560722021E0,2.655855943E0
1.203829721E1,-6.260683966E-1,-2.100958671E-1,-2.055209178E0,2.158700229E0
1.204832621E1,-5.480259747E-1,-9.771808326E-2,-1.424596910E0,1.529495881E0
1.205835421E1,-4.437424184E-1,4.573253542E-3,-6.274027312E-1,7.684806020E-1
1.206838221E1,-4.584104878E-1,1.350070931E-1,2.629147893E-1,5.454276093E-1
1.207841021E1,-5.367562705E-1,2.179637343E-1,9.865743846E-1,1.144091124E0
1.208843821E1,-6.811430284E-1,1.541852295E-2,1.388114378E0,1.546303684E0
1.209846621E1,-8.603524406E-1,-2.977070381E-1,1.476588013E0,1.734689587E0
1.210849421E1,-8.702212981E-1,-5.571153983E-1,1.383431343E0,1.726715076E0
1.211852221E1,-6.592923490E-1,-8.248051701E-1,1.119982118E0,1.539262783E0
1.212855021E1,-3.220756017E-1,-9.040570155E-1,7.869194520E-1,1.241085817E0
1.213857821E1,-7.187555538E-2,-8.101912241E-1,5.876603758E-1,1.003454350E0
1.214860621E1,2.126808115E-1,-7.889928746E-1,4.047419286E-1,9.118985210E-1
1.215863421E1,4.289028429E-1,-7.505975716E-1,6.268987012E-1,1.067874686E0
1.216866221E1,6.247444408E-1,-6.552712919E-1,1.448195103E0,1.707909582E0
1.217869021E1,5.029676232E-1,-5.960908914E-1,2.484949123E0,2.604471717E0
1.218871821E1,4.126954575E-1,-6.335424538E-1,3.655130172E0,3.732515259E0
1.219874621E1,7.206666979E-1,-6.601217034E-1,4.442664751E0,4.548889012E0
1.220877421E1,1.069528175E0,-8.762489735E-1,4.613133892E0,4.815880717E0
1.221880221E1,1.371862773E0,-1.173892569E0,4.747551439E0,5.079298761E0
1.222883021E1,1.380510220E0,-9.676468013E-1,4.888558799E0,5.171088467E0
1.223885821E1,9.968095701E-1,-3.577591123E-1,4.550135406E0,4.671761243E0
1.224888621E1,6.826270518E-1,1.053030914E-1,3.747371169E0,3.810493289E0
1.225891421E1,6.957827023E-1,2.778884853E-1,2.936558824E0,3.030629193E0
1.226894221E1,4.231123453E-1,5.843455893E-1,2.209126605E0,2.323945822E0
1.227897021E1,5.204919113E-2,6.748254043E-1,1.466146640E0,1.614832628E0
1.228899821E1,-1.416491829E-1,4.460117228E-1,6.490432763E-1,8.001550615E-1
1.229902621E1,-2.117680794E-1,-4.583208427E-2,-1.517861170E-1,2.645473959E-1
1.230905421E1,-3.191365353E-1,-5.751102045E-1,-5.773160666E-1,8.751535387E-1
1.231908221E1,-3.579423494E-1,-1.015058511E0,-5.119254845E-1,1.191861656E0
1.232911021E1,-2.833666321E-1,-1.225494247E0,-2.082696354E-1,1.274954525E0
1.233913821E1,-1.257721469E-1,-1.325195268E0,4.217982566E-1,1.396379211E0
1.234916621E1,7.730724413E-2,-1.151417626E0,1.161130144E0,1.637059001E0
1.235919421E1,2.704941512E-1,-7.902241521E-1,1.772093428E0,1.959065189E0
1.236922221E1,5.426698155E-1,-5.233367644E-1,1.963239493E0,2.103017167E0
1.237925021E1,8.300213981E-1,-2.902131003E-1,1.624436615E0,1.847147390E0
1.238927821E1,1.031828764E0,-1.069514215E-2,8.691909456E-1,1.349176743E0
1.239930621E1,1.029150154E0,3.088424756E-1,-6.863461733E-3,1.074514226E0
1.240933421E1,9.576691125E-1,4.907034539E-1,-7.831421506E-1,1.330876267E0
1.241936221E1,8.023634103E-1,6.349981181E-1,-1.484714473E0,1.803160204E0
1.242939021E1,5.449098838E-1,6.712670812E-1,-2.072812221E0,2.245902220E0
1.243941821E1,3.953165824E-1,5.845730460E-1,-2.600499460E0,2.694549738E0
1.244944621E1,2.541920226E-1,5.082955331E-1,-3.088495799E0,3.140347789E0
1.245947421E1,5.911051259E-2,3.844342563E-1,-3.474370517E0,3.496074118E0
1.246950221E1,-5.977444109E-3,1.561950637E-1,-3.822287450E0,3.825482189E0
1.247953021E1,1.162940844E-2,-4.889295548E-2,-3.987654895E0,3.987971580E0
1.248955821E1,-3.018710048E-2,-1.926701412E-1,-4.050445805E0,4.055138008E0
1.249958621E1,-1.538682556E-1,-2.563929512E-1,-3.955347859E0,3.966634527E0
1.250961421E1,-2.410158886E-1,-2.787468566E-1,-3.611061462E0,3.629814507E0
1.251964221E1,-2.762093843E-1,-2.861200494E-1,-3.207202463E0,3.231764835E0
1.252967021E1,-2.550304403E-1,-1.441207096E-1,-3.011696130E0,3.025908935E0
1.253969821E1,-3.082058965E-1,8.048706964E-2,-2.946050609E0,2.963221766E0
1.254972621E1,-4.004700625E-1,2.664814447E-1,-2.871660578E0,2.911670157E0
1.255975421E1,-4.384545621E-1,3.760141195E-1,-2.831817065E0,2.890124031E0
1.256978221E1,-4.557168583E-1,4.220591886E-1,-2.845314193E0,2.912322900E0
1.257981021E1,-4.368148566E-1,4.436846772E-1,-2.803977887E0,2.872273542E0
1.258983821E1,-2.366941933E-1,4.127160689E-1,-2.638695812E0,2.681244913E0
1.259986621E1,-9.711322535E-2,3.328382792E-1,-2.266177304E0,2.292547027E0
1.260989421E1,-1.458566748E-1,3.464890426E-1,-1.579820021E0,1.623933534E0
1.261992221E1,-1.615484638E-1,4.732734887E-1,-8.321406484E-1,9.708469292E-1
1.262995021E1,1.314155779E-2,6.584378515E-1,-2.300855970E-1,6.976048214E-1
1.263997821E1,2.849909886E-1,8.947285138E-1,1.828032571E-1,9.566483198E-1
1.265000621E1,5.490855267E-1,1.098437467E0,2.487300289E-1,1.252967044E0
1.266003421E1,7.465322949E-1,1.293523386E0,1.868366665E-1,1.505131608E0
1.267006221E1,9.802987873E-1,1.366902580E0,2.096180034E-1,1.695095302E0
1.268009021E1,1.233778436E0,1.251496669E0,2.877081531E-1,1.780794521E0
1.269011821E1,1.324790348E0,1.012564527E0,4.061411673E-1,1.716189685E0
1.270014621E1,1.241969070E0,7.649462003E-1,8.709696686E-1,1.698887290E0
1.271017421E1,1.053729510E0,4.932993253E-1,2.027815558E0,2.337889228E0
1.272020221E1,5.947752313E-1,2.543650637E-1,4.099830803E0,4.150550780E0
1.273023021E1,2.305239555E-1,2.136289740E-1,6.373300170E0,6.381044874E0
1.274025821E1,3.204170389E-1,1.356993303E-1,7.740469236E0,7.748286610E0
1.275028621E1,6.595472145E-1,-1.522853961E-1,7.804274054E0,7.833574336E0
1.276031421E1,8.976670320E-1,-1.741645807E-1,7.017192049E0,7.076519176E0
1.277034221E1,8.740276162E-1,1.823155262E-1,6.104111318E0,6.169062993E0
1.278037008E1,8.697125904E-1,6.065661782E-1,4.909796471E0,5.022989539E0
1.279039808E1,6.820771211E-1,7.455243811E-1,3.666965522E0,3.803639302E0
1.280042608E1,2.841980696E-1,5.950686519E-1,2.583873487E0,2.666697853E0
1.281045408E1,-1.396207655E-1,4.332553641E-1,1.837368820E0,1.892915305E0
1.282048208E1,-5.756660555E-1,4.027631577E-1,1.251601188E0,1.435310107E0
1.283051008E1,-9.546594045E-1,3.430285142E-1,6.618656355E-1,1.211242857E0
1.284053808E1,-8.832561305E-1,1.533947591E-1,4.313835973E-1,9.948684095E-1
1.285056608E1,-5.326675684E-1,-1.315827443E-1,4.191178930E-1,6.904408485E-1
1.286059408E1,-3.957709841E-1,-4.224793111E-1,6.050026327E-1,8.373479718E-1
1.287062208E1,-2.756293588E-1,-8.102274768E-1,1.154835032E0,1.437387929E0
1.288065008E1,-8.846914027E-2,-1.001309807E0,1.683009344E0,1.960349094E0
1.289067808E1,1.006299053E-1,-9.629331415E-1,2.190458200E0,2.394884911E0
1.290070608E1,1.610084917E-1,-7.141060489E-1,2.408441230E0,2.517232675E0
1.291073408E1,8.042478765E-2,-3.453551213E-1,1.981323177E0,2.012803974E0
1.292076208E1,3.916097766E-2,-2.093800217E-2,9.490101171E-1,9.500485169E-1
1.293079008E1,8.129877280E-3,1.421865238E-1,-1.047604698E-1,1.767989210E-1
1.294081808E1,-7.657905565E-2,2.501009817E-1,-8.624730796E-1,9.012628173E-1
1.295084608E1,-3.033409217E-1,3.630453607E-1,-1.570622351E0,1.640326863E0
1.296087408E1,-4.959322899E-1,2.794504959E-1,-2.301713172E0,2.371059878E0
1.297090208E1,-6.685077801E-1,2.104185603E-1,-2.849802516E0,2.934715149E0
1.298093008E1,-7.829395446E-1,1.416191246E-1,-3.121761779E0,3.221559701E0
1.299095808E1,-8.427708864E-1,8.483600937E-2,-3.129924492E0,3.242512489E0
1.300098608E1,-7.952444983E-1,4.921053238E-2,-3.048500844E0,3.150903503E0
1.301101408E1,-6.329828753E-1,-3.029946752E-2,-3.180946711E0,3.243456082E0
1.302104208E1,-3.977341503E-1,-9.160562329E-2,-3.518126986E0,3.541722961E0
1.303107008E1,-2.140249767E-1,-1.279423410E-1,-3.817406194E0,3.825541267E0
1.304109808E1,-9.263314353E-2,-1.422322782E-1,-3.963557934E0,3.967190746E0
1.305112608E1,-1.019303078E-2,-1.347006990E-1,-3.972269116E0,3.974565398E0
1.306115408E1,-7.463440876E-3,-1.300539167E-1,-3.907312982E0,3.909483913E0
1.307118208E1,1.441857599E-2,-7.727702133E-2,-3.826296886E0,3.827104322E0
1.308121008E1,1.506633785E-2,-7.264507636E-3,-3.711120771E0,3.711158464E0
1.309123808E1,3.165806579E-2,2.135929406E-2,-3.449892903E0,3.450104273E0
1.310126608E1,9.393654272E-2,2.064936899E-2,-3.101218756E0,3.102709822E0
1.311129408E1,1.764580231E-1,-1.552932769E-2,-2.747739367E0,2.753443339E0
1.312132208E1,1.556131379E-1,-3.163255960E-2,-2.397228025E0,2.402481690E0
1.313135008E1,-2.785485629E-3,-4.079777777E-2,-2.002243345E0,2.002660887E0
1.314137808E1,-1.114305531E-1,-2.321381159E-2,-1.480079386E0,1.484449607E0
1.315140608E1,-2.868073165E-1,6.595608093E-2,-7.306698221E-1,7.877099912E-1
1.316143408E1,-5.033901211E-1,-3.499814384E-2,2.915217072E-1,5.827618638E-1
1.317146208E1,-6.918704765E-1,-1.438246943E-1,9.158663446E-1,1.156797934E0
1.318149008E1,-8.898858498E-1,-2.375121456E-1,8.760280949E-1,1.271115285E0
1.319151808E1,-1.046081206E0,-3.672247311E-1,8.064854050E-1,1.370969949E0
1.320154608E1,-9.627294391E-1,-2.811687733E-1,9.684351522E-1,1.394191700E0
1.321157408E1,-6.608131367E-1,-3.082131690E-1,9.077217579E-1,1.164314454E0
1.322160208E1,-3.421554153E-1,-4.419284660E-1,7.465233779E-1,9.325600522E-1
1.323163008E1,6.253085509E-2,-5.596844456E-1,9.720031232E-1,1.123364081E0
1.324165808E1,3.240801003E-1,-6.208272448E-1,1.594074363E0,1.741128213E0
1.325168608E1,3.685031883E-1,-5.789388151E-1,2.376937602E0,2.474024477E0
1.326171408E1,5.166008085E-1,-6.516538388E-1,3.441130266E0,3.540184547E0
1.327174208E1,6.792142513E-1,-6.893116618E-1,4.403139328E0,4.508227868E0
1.328177008E1,7.668075883E-1,-6.626943322E-1,5.045266517E0,5.146054011E0
1.329179808E1,1.115940303E0,-7.808327928E-1,5.071218799E0,5.250931605E0
1.330182608E1,1.503197230E0,-8.199898419E-1,4.609954176E0,4.917688762E0
1.331185408E1,1.582143558E0,-3.683623800E-1,4.107383652E0,4.416952518E0
1.332188208E1,1.428689231E0,3.195493121E-1,3.530358776E0,3.821870978E0
1.333191008E1,1.130535100E0,8.105448344E-1,2.770065206E0,3.099734470E0
1.334193808E1,7.947310397E-1,1.039151159E0,2.081294777E0,2.458296261E0
1.335196608E1,3.359772107E-1,1.101402152E0,1.545839512E0,1.927585843E0
1.336199308E1,-1.635651136E-1,1.029973808E0,1.135806438E0,1.541964933E0
1.337202208E1,-5.586289867E-1,5.690287348E-1,8.614656043E-1,1.173875220E0
1.338204908E1,-8.546095978E-1,-1.824804177E-1,9.297148901E-1,1.275941395E0
1.339207708E1,-1.187954538E0,-1.034761727E0,1.573319086E0,2.226499666E0
1.340210508E1,-1.458402588E0,-1.656235674E0,2.275991855E0,3.170204038E0
1.341213308E1,-1.341232134E0,-1.918824774E0,2.548893689E0,3.460874338E0
1.342216108E1,-9.670282390E-1,-1.710942662E0,2.284173864E0,3.013290336E0
1.343218908E1,-7.078585182E-1,-1.137932778E0,1.775359098E0,2.224377355E0
1.344221708E1,-4.394778979E-1,-4.264812186E-1,1.087396170E0,1.247981363E0
1.345224508E1,-2.255639086E-1,1.449136286E-1,1.460692942E-1,3.053117674E-1
1.346227308E1,1.244804604E-1,4.169943670E-1,-7.948424292E-1,9.061755759E-1
1.347230108E1,3.697372066E-1,5.801277734E-1,-1.573503274E0,1.717313713E0
1.348232908E1,5.035378730E-1,6.573663493E-1,-2.186026011E0,2.337603607E0
1.349235708E1,5.872642635E-1,6.876018628E-1,-2.548280901E0,2.703962127E0
1.350238508E1,6.071153779E-1,6.960806179E-1,-2.517673650E0,2.681752770E0
1.351241308E1,6.184676009E-1,6.538169432E-1,-2.515355229E0,2.671514682E0
1.352244108E1,5.302943298E-1,5.982442016E-1,-2.762746246E0,2.876086755E0
1.353246908E1,5.539904270E-1,4.318347099E-1,-3.064594136E0,3.144061677E0
1.354249708E1,5.482122451E-1,2.136929280E-1,-3.200915537E0,3.254544762E0
1.355252508E1,4.207465984E-1,6.921232224E-2,-3.034006766E0,3.063823608E0
1.356255308E1,3.991655121E-1,-5.417160250E-2,-2.799248659E0,2.828084285E0
1.357258108E1,3.601323509E-1,-9.863097981E-2,-2.754660716E0,2.779852342E0
1.358260908E1,3.151648506E-1,2.653239883E-2,-2.984283798E0,3.000996941E0
1.359263708E1,3.479011818E-1,2.483533220E-1,-3.411946812E0,3.438618277E0
1.360266508E1,3.539807877E-1,4.871675695E-1,-3.684387885E0,3.733275871E0
1.361269308E1,3.820562667E-1,6.922203592E-1,-3.742584053E0,3.825189069E0
1.362272108E1,4.011081399E-1,7.123942765E-1,-3.669105603E0,3.759086228E0
1.363274908E1,4.637282015E-1,5.628862347E-1,-3.523453215E0,3.598139424E0
1.364277708E1,4.401713046E-1,4.256058173E-1,-3.342232214E0,3.397853332E0
1.365280508E1,2.279080391E-1,2.998224876E-1,-2.873897722E0,2.898469202E0
1.366283308E1,1.133929792E-1,5.298037849E-2,-2.231250715E0,2.234758296E0
1.367286108E1,1.423512142E-1,-8.121380545E-2,-1.618823873E0,1.627098731E0
1.368288908E1,2.731077287E-1,7.763962179E-2,-1.057175421E0,1.094639490E0
1.369291708E1,3.683108149E-1,3.543868768E-1,-6.974436039E-1,8.646794177E-1
1.370294508E1,4.369681267E-1,7.946385806E-1,-4.656383407E-1,1.019416834E0
1.371297308E1,5.023316655E-1,1.264036169E0,-4.167333984E-1,1.422600177E0
1.372300108E1,5.568225990E-1,1.588106256E0,-5.152069420E-1,1.759991784E0
1.373302908E1,6.562192717E-1,1.672025788E0,-5.321217674E-1,1.873351954E0
1.374305708E1,7.603777707E-1,1.473936301E0,-2.162259418E-1,1.672547826E0
1.375308508E1,8.605470067E-1,1.142068148E0,4.602898926E-1,1.502240856E0
1.376311308E1,8.044893848E-1,7.310667019E-1,1.545907339E0,1.889838934E0
1.377314108E1,8.199932040E-1,1.503410507E-1,2.807513698E0,2.928672814E0
1.378316908E1,8.800165538E-1,-2.914272016E-1,3.942571692E0,4.050090184E0
1.379319708E1,9.423083308E-1,-4.542464297E-1,4.893310831E0,5.003876068E0
1.380322508E1,1.148979776E0,-2.216662643E-1,5.489160233E0,5.612501271E0
1.381325308E1,1.472782645E0,2.303801505E-1,5.551507339E0,5.748164704E0
1.382328108E1,1.788034839E0,5.314624938E-1,5.007037421E0,5.343214829E0
1.383330908E1,2.062320270E0,5.858190145E-1,4.121051518E0,4.645364833E0
1.384333708E1,1.858017970E0,7.382964917E-1,3.407500589E0,3.950743317E0
1.385336508E1,1.283123382E0,9.082048841E-1,2.962100047E0,3.353398040E0
1.386339308E1,6.984499097E-1,7.036469150E-1,2.553967903E0,2.739653866E0
1.387342108E1,3.685173678E-1,2.206886099E-1,2.258606914E0,2.299089755E0
1.388344908E1,1.834923149E-1,-1.242854923E-1,2.211791182E0,2.222866740E0
1.389347708E1,-4.867760618E-1,-1.782592396E-1,2.364177223E0,2.420343205E0
1.390350508E1,-1.039313127E0,-4.650363699E-1,2.791036245E0,3.014351327E0
1.391353308E1,-1.135844518E0,-9.464323720E-1,3.438043520E0,3.742461790E0
1.392356108E1,-1.107180005E0,-1.387343130E0,3.982392401E0,4.360047907E0
1.393358908E1,-9.520720115E-1,-1.597901073E0,4.085839001E0,4.489299422E0
1.394361708E1,-6.393200876E-1,-1.506068651E0,3.638191373E0,3.989161494E0
1.395364508E1,-4.529692151E-1,-1.090785216E0,2.844997859E0,3.080423074E0
1.396367308E1,-4.217840040E-1,-5.414875451E-1,2.210166825E0,2.314292095E0
1.397370108E1,-3.900347925E-1,-2.692211576E-2,1.704878515E0,1.749131982E0
1.398372808E1,-4.125174829E-1,3.217396791E-1,1.000566187E0,1.129079178E0
1.399375608E1,-3.350290481E-1,2.923091809E-1,1.373575276E-1,4.653560043E-1
1.400378408E1,-1.377129561E-1,9.328362800E-2,-6.643852007E-1,6.848900558E-1
1.401381208E1,-1.810255939E-2,-6.050282143E-2,-1.267709683E0,1.269281739E0
1.402384008E1,-9.147472789E-2,-1.017376055E-1,-1.580819895E0,1.586729248E0
1.403386808E1,-1.730028851E-1,-1.043950919E-1,-1.676382694E0,1.688516293E0
1.404389608E1,-2.017693589E-1,-9.991078913E-2,-1.826795885E0,1.840618441E0
1.405392408E1,-2.319766962E-1,-4.216478370E-2,-2.147388194E0,2.160293293E0
1.406395208E1,-2.052283889E-1,8.058413342E-3,-2.584378102E0,2.592526529E0
1.407398008E1,-1.810490559E-1,-3.038571395E-2,-2.914933482E0,2.920708691E0
1.408400808E1,-2.254656754E-1,-7.754365437E-2,-3.078656105E0,3.087874868E0
1.409403608E1,-2.540999655E-1,-1.730805069E-1,-3.194987045E0,3.209745453E0
1.410406408E1,-2.196239415E-1,-3.356869695E-1,-3.550324094E0,3.572914999E0
1.411409208E1,-2.594968542E-1,-4.873211320E-1,-3.968673078E0,4.006892375E0
1.412412008E1,-3.137373260E-1,-5.962967134E-1,-4.185443981E0,4.239332754E0
1.413414808E1,-2.840826967E-1,-7.110804071E-1,-4.373244268E0,4.439775192E0
1.414417608E1,-2.612517681E-1,-8.314600325E-1,-4.550052960E0,4.632770252E0
1.415420408E1,-2.470430706E-1,-9.230431440E-1,-4.574784928E0,4.673510037E0
1.416423208E1,-2.317552329E-1,-9.983867104E-1,-4.489571700E0,4.605077693E0
1.417426008E1,-2.832346312E-1,-1.045228463E0,-4.211857023E0,4.348846281E0
1.418428808E1,-3.862826708E-1,-1.027596622E0,-3.764507019E0,3.921311288E0
1.419431608E1,-5.848015625E-1,-9.946300936E-1,-3.070161270E0,3.279812817E0
1.420434408E1,-7.927013250E-1,-9.035138091E-1,-2.364487710E0,2.652454472E0
1.421437208E1,-8.135062299E-1,-9.544494163E-1,-1.985028557E0,2.348000095E0
1.422440008E1,-7.759190121E-1,-9.777920128E-1,-1.611699625E0,2.038554197E0
1.423442808E1,-6.719960828E-1,-8.441356266E-1,-1.217868016E0,1.627066746E0
1.424445608E1,-5.402974540E-1,-6.573897381E-1,-9.209411430E-1,1.253880056E0
1.425448408E1,-4.931913710E-1,-4.821717815E-1,-7.417280763E-1,1.012861242E0
1.426451208E1,-4.103612490E-1,-3.387412626E-1,-5.395687813E-1,7.578103110E-1
1.427454008E1,-4.174911245E-1,-2.436878286E-1,-9.270351112E-2,4.922159463E-1
1.428456808E1,-4.794858630E-1,-2.488232189E-1,7.083989471E-1,8.908696624E-1
1.429459608E1,-4.177195314E-1,-3.602628169E-1,1.862981379E0,1.942930396E0
1.430462408E1,-2.821474510E-1,-4.593051483E-1,2.914844019E0,2.964267879E0
1.431465208E1,-1.594203879E-1,-5.189464556E-1,3.465904918E0,3.508164361E0
1.432468008E1,-7.497837123E-2,-4.431754578E-1,3.646081606E0,3.673681712E0
1.433470808E1,1.626599281E-1,-1.314715011E-1,3.795183851E0,3.800942445E0
1.434473608E1,4.258401445E-1,2.645804418E-1,3.762806649E0,3.796058023E0
1.435476408E1,6.649741615E-1,4.407718867E-1,3.507192693E0,3.596786215E0
1.436479208E1,9.732056031E-1,3.272728262E-1,3.287610449E0,3.444215312E0
1.437482008E1,1.293805806E0,-6.912563726E-2,3.244144002E0,3.493305329E0
1.438484708E1,1.335738090E0,-2.578839181E-1,3.550468521E0,3.802173993E0
1.439487508E1,8.676396062E-1,1.139602596E-1,3.865566786E0,3.963381385E0
1.440490308E1,4.073388963E-1,3.516448616E-1,3.783318096E0,3.821396983E0
1.441493108E1,3.046461847E-1,3.359337586E-1,3.407605255E0,3.437649540E0
1.442495908E1,5.039806534E-2,5.130342628E-1,3.114817041E0,3.157186931E0
1.443498708E1,-3.161623125E-1,7.206213089E-1,2.974621274E0,3.076950667E0
1.444501508E1,-5.826641493E-1,5.960933033E-1,2.597841901E0,2.728297505E0
1.445504308E1,-7.129019610E-1,1.779737493E-1,1.911898016E0,2.048232869E0
1.446507108E1,-7.764087895E-1,-1.968989937E-1,1.227204850E0,1.465473155E0
1.447509908E1,-8.699565654E-1,-5.563832173E-1,7.346108454E-1,1.267296258E0
1.448512708E1,-7.518149619E-1,-9.301148397E-1,4.917186767E-1,1.293107346E0
1.449515508E1,-4.702372124E-1,-1.083286893E0,5.223346978E-1,1.291304404E0
1.450518308E1,-2.384233246E-1,-9.086064416E-1,6.457021773E-1,1.139887121E0
1.451521108E1,-9.299744334E-2,-5.763732031E-1,6.429937470E-1,8.685019012E-1
1.452523908E1,1.364606378E-1,-3.321646434E-1,5.428081387E-1,6.508421709E-1
1.453526708E1,5.080567474E-1,-2.765498019E-1,2.864884239E-1,6.455052816E-1
1.454529508E1,7.306302072E-1,-2.330106667E-1,-2.480856657E-2,7.672873878E-1
1.455532308E1,8.614984218E-1,-1.941986764E-1,-2.403287494E-1,9.152325194E-1
1.456535108E1,8.483304191E-1,-4.336561907E-2,-5.856688142E-1,1.031771795E0
1.457537908E1,7.668734425E-1,2.036269828E-1,-1.139464456E0,1.388502096E0
1.458540708E1,7.263300917E-1,4.599008700E-1,-1.889555220E0,2.075929465E0
1.459543508E1,6.399819924E-1,6.156431034E-1,-2.614054475E0,2.760774200E0
1.460546308E1,5.359251985E-1,5.827687049E-1,-3.206475070E0,3.302774221E0
1.461549108E1,3.544748043E-1,4.706249193E-1,-3.643304179E0,3.690637552E0
1.462551908E1,2.775849600E-1,2.978328994E-1,-3.979878098E0,4.000648387E0
1.463554708E1,2.713116468E-1,1.451704310E-1,-4.204331072E0,4.215576381E0
1.464557508E1,2.345147533E-1,1.059926243E-1,-4.245893081E0,4.253685421E0
1.465560308E1,1.630663827E-1,1.499874038E-1,-4.000582504E0,4.006712772E0
1.466563108E1,9.370946975E-2,2.620594513E-1,-3.618847615E0,3.629533672E0
1.467565908E1,2.584406278E-2,4.343615476E-1,-3.264067220E0,3.292942861E0
1.468568608E1,9.568632200E-2,6.396831997E-1,-2.877409560E0,2.949209427E0
1.469571408E1,1.545175341E-1,7.800453191E-1,-2.463711451E0,2.588864709E0
1.470574208E1,1.097200233E-1,8.595925950E-1,-2.110139676E0,2.281146064E0
1.471577008E1,-6.920910627E-4,8.666531079E-1,-1.931982617E0,2.117461905E0
1.472579808E1,-5.163254960E-2,8.465511113E-1,-1.942156187E0,2.119265288E0
1.473582608E1,-6.036636204E-2,8.356146985E-1,-1.981478128E0,2.151313922E0
1.474585408E1,-6.111820433E-2,8.111927059E-1,-1.878590521E0,2.047161788E0
1.475588208E1,-5.241480656E-3,8.418636909E-1,-1.573550051E0,1.784606879E0
1.476591008E1,3.087762924E-2,8.498557384E-1,-1.108148523E0,1.396854092E0
1.477593808E1,-7.164872909E-2,8.778797619E-1,-5.145982468E-1,1.020106746E0
1.478596538E1,1.869712986E-2,8.603870854E-1,2.341593522E-1,8.918778625E-1
1.479599338E1,1.009774674E-1,7.070125723E-1,1.030081177E0,1.253447429E0
1.480602137E1,1.993389089E-1,6.251635399E-1,1.438786933E0,1.581351729E0
1.481604938E1,3.452742105E-1,5.935593759E-1,1.369241905E0,1.531780143E0
1.482607738E1,3.877494448E-1,5.247360397E-1,1.333645810E0,1.484691446E0
1.483610538E1,4.216185278E-1,4.957946976E-1,1.411466403E0,1.554288253E0
1.484613338E1,4.204857760E-1,4.624329336E-1,1.552896516E0,1.673959407E0
1.485616138E1,3.352052686E-1,3.950182648E-1,2.022439628E0,2.087741375E0
1.486618938E1,4.417561558E-1,3.541034696E-1,2.781400033E0,2.838436879E0
1.487621738E1,6.009295354E-1,2.981096554E-1,3.497279908E0,3.561032495E0
1.488624538E1,6.824811637E-1,2.348226457E-1,4.258466349E0,4.319196436E0
1.489627338E1,9.180459673E-1,8.557882503E-2,4.924193485E0,5.009771813E0
1.490630138E1,1.162496346E0,-2.213880830E-1,4.925618452E0,5.065780055E0
1.491632938E1,1.283606362E0,-5.762952890E-1,4.264097217E0,4.490243493E0
1.492635738E1,9.635486341E-1,-4.807239744E-1,3.521697296E0,3.682644886E0
1.493638538E1,4.082273076E-1,-1.144635222E-1,2.931876374E0,2.962372445E0
1.494641338E1,8.592574764E-2,2.657837257E-2,2.156820338E0,2.158694887E0
1.495644138E1,-3.995819983E-2,-1.387914842E-1,1.230320247E0,1.238768600E0
1.496646938E1,-2.198866642E-1,-2.113359519E-1,4.859533221E-1,5.737278631E-1
1.497649638E1,-6.372700538E-1,-1.075397245E-1,7.034025013E-2,6.500966579E-1
1.498652438E1,-7.915215030E-1,-1.063074238E-1,1.163151526E-1,8.070543804E-1
1.499655238E1,-6.364833109E-1,-3.383029042E-1,4.762615621E-1,8.639357242E-1
1.500658038E1,-4.512612800E-1,-6.781631412E-1,6.776841080E-1,1.059621507E0
1.501660838E1,-3.532891352E-1,-8.934650036E-1,8.408056372E-1,1.276732958E0
1.502663638E1,-6.958545682E-2,-1.160573781E0,1.299738391E0,1.743873138E0
1.503666438E1,3.809130264E-2,-1.304195431E0,1.924287096E0,2.324920966E0
1.504669238E1,-9.472249987E-2,-1.306464736E0,2.525814729E0,2.845270198E0
1.505672038E1,-2.531446401E-1,-1.029663832E0,2.853525438E0,3.044157887E0
1.506674838E1,-2.975091464E-1,-5.411509647E-1,2.559413415E0,2.632860248E0
1.507677638E1,-1.983803127E-1,-1.113082184E-1,1.568883389E0,1.585288414E0
1.508680438E1,1.262333460E-2,6.775059141E-2,4.332763410E-1,4.387230093E-1
1.509683238E1,8.989189574E-2,1.643678998E-1,-4.715147924E-1,5.073692530E-1
1.510686038E1,-1.363172166E-1,1.564944046E-1,-1.148856838E0,1.167452319E0
1.511688838E1,-4.069492890E-1,8.114016708E-2,-1.593147579E0,1.646302117E0
1.512691638E1,-5.005575106E-1,2.673219088E-2,-1.944904379E0,2.008463461E0
1.513694438E1,-4.287573569E-1,-5.350944187E-2,-2.379081191E0,2.417999885E0
1.514697238E1,-4.027564700E-1,-1.245723348E-1,-2.895028975E0,2.925563844E0
1.515700038E1,-3.888979476E-1,-1.378558566E-1,-3.296708717E0,3.322428963E0
1.516702838E1,-3.561561712E-1,-1.123164977E-1,-3.447310773E0,3.467479456E0
1.517705638E1,-2.895563484E-1,-1.244575466E-1,-3.455078799E0,3.469423881E0
1.518708438E1,-1.406236818E-1,-1.068251947E-1,-3.435440925E0,3.439976888E0
1.519711238E1,-6.475601301E-2,-3.057300758E-2,-3.324050297E0,3.324821563E0
1.520714038E1,-7.472192514E-2,2.119100388E-2,-3.104621835E0,3.105593207E0
1.521716738E1,-3.303379915E-2,9.908837825E-3,-2.884317461E0,2.884523640E0
1.522719538E1,-2.233965285E-2,1.979706421E-2,-2.810560682E0,2.810719184E0
1.523722338E1,4.273040132E-2,8.247939873E-2,-2.670091851E0,2.671707176E0
1.524725138E1,1.105561751E-1,1.463037676E-1,-2.543907183E0,2.550508031E0
1.525727938E1,6.077982414E-2,1.580112820E-1,-2.477187529E0,2.482965930E0
1.526730738E1,-9.180804659E-2,1.393934185E-1,-2.284846879E0,2.290935290E0
1.527733538E1,-3.206902501E-1,-5.756682482E-2,-1.944438356E0,1.971546777E0
1.528736338E1,-4.612423309E-1,-2.460791571E-1,-1.528848673E0,1.615759172E0
1.529739138E1,-4.808914606E-1,-3.899593269E-1,-1.017598541E0,1.191147205E0
1.530741938E1,-4.102026067E-1,-4.199435929E-1,-5.876790869E-1,8.306536637E-1
1.531744738E1,-3.458439851E-1,-3.645171414E-1,-4.483276588E-1,6.734081214E-1
1.532747538E1,-2.873462836E-1,-2.893649982E-1,-5.507585979E-1,6.852992208E-1
1.533750338E1,-2.720398079E-1,-2.199566115E-1,-7.759641087E-1,8.511796908E-1
1.534753138E1,-2.434665481E-1,-1.798442005E-1,-9.378933907E-1,9.855272237E-1
1.535755937E1,-1.962762835E-1,-1.669576681E-1,-8.945842338E-1,9.309566014E-1
1.536758738E1,-8.512526382E-2,-2.901171329E-1,-4.871426457E-1,5.733430200E-1
1.537761538E1,-1.269298408E-1,-5.908427960E-1,3.751626188E-1,7.113040030E-1
1.538764338E1,-1.223912137E-1,-8.363201650E-1,1.585860195E0,1.797043011E0
1.539767138E1,-7.727486517E-2,-9.266834743E-1,2.819098787E0,2.968506634E0
1.540769938E1,1.547638481E-1,-9.142494433E-1,3.655567544E0,3.771336363E0
1.541772738E1,4.667576805E-1,-8.747528172E-1,3.915029553E0,4.038627443E0
1.542775538E1,7.300785224E-1,-6.824289043E-1,3.588412272E0,3.724973355E0
1.543778238E1,8.746094873E-1,-3.925427729E-1,3.056797459E0,3.203598334E0
1.544781038E1,1.312202170E0,-4.079328272E-1,2.492811874E0,2.846470581E0
1.545783838E1,1.466105125E0,-4.513331276E-1,2.177248755E0,2.663377174E0
1.546786638E1,1.206286290E0,-1.748692433E-1,2.200987281E0,2.515959236E0
1.547789438E1,8.330870202E-1,3.656907141E-1,2.432854525E0,2.597411177E0
1.548792238E1,4.038718994E-1,6.430212289E-1,2.489553806E0,2.602780621E0
1.549795038E1,2.859748009E-1,6.409198858E-1,2.691459332E0,2.781458829E0
1.550797838E1,7.027085099E-2,8.323315600E-1,2.964084592E0,3.079531017E0
1.551800638E1,-3.571611248E-1,9.010263305E-1,3.111724448E0,3.259178050E0
1.552803438E1,-4.953782297E-1,5.039306231E-1,3.035724678E0,3.116884660E0
1.553806238E1,-5.705833267E-1,2.543684989E-3,2.643161330E0,2.704047637E0
1.554809038E1,-6.562452918E-1,-3.788841522E-1,2.058599979E0,2.193637380E0
1.555811838E1,-5.814113834E-1,-7.755838935E-1,1.452486375E0,1.746220559E0
1.556814638E1,-3.955461952E-1,-1.009973553E0,1.022464010E0,1.490615987E0
1.557817438E1,-3.946960101E-1,-8.878844941E-1,8.643050122E-1,1.300441067E0
1.558820238E1,-4.619301827E-1,-5.202574745E-1,8.878628594E-1,1.127983950E0
1.559823038E1,-3.705741625E-1,-1.119825851E-1,8.747095478E-1,9.565469681E-1
1.560825838E1,-1.358183943E-1,1.730892777E-1,6.440702194E-1,6.806122110E-1
1.561828638E1,1.566529007E-1,2.788639836E-1,3.609954000E-1,4.823099952E-1
1.562831438E1,3.683280277E-1,2.113087623E-1,3.975814283E-2,4.264945942E-1
1.563834238E1,3.722831574E-1,1.050263719E-1,-4.350006849E-1,5.821089966E-1
1.564836938E1,3.307196867E-1,8.300601359E-2,-9.714306808E-1,1.029535369E0
1.565839738E1,2.837964024E-1,1.114702228E-1,-1.578992055E0,1.608161036E0
1.566842538E1,1.494880150E-1,1.607775632E-1,-2.211939116E0,2.222806952E0
1.567845338E1,8.835848171E-2,2.792448201E-1,-2.683228206E0,2.699166260E0
1.568848138E1,1.414388476E-2,2.999416612E-1,-3.108386858E0,3.122856690E0
1.569850938E1,7.846660081E-2,2.940888176E-1,-3.479190377E0,3.492479194E0
1.570853738E1,5.610088217E-2,3.268385243E-1,-3.855762175E0,3.869996470E0
1.571856538E1,3.176572993E-2,3.797268457E-1,-4.152032990E0,4.169481921E0
1.572859338E1,3.371694580E-2,4.369460535E-1,-4.335214562E0,4.357309260E0
1.573862137E1,4.542102501E-2,4.841358612E-1,-4.337823590E0,4.364993024E0
1.574864938E1,9.471001058E-2,5.366487914E-1,-4.124683224E0,4.160525641E0
1.575867738E1,1.211542900E-1,4.867482510E-1,-3.776227763E0,3.809396059E0
1.576870538E1,1.248060955E-1,4.304955148E-1,-3.340299709E0,3.370238137E0
1.577873338E1,1.685445294E-1,4.975318323E-1,-2.991314490E0,3.037088666E0
1.578876233E1,2.021263679E-1,5.453103085E-1,-2.681054796E0,2.743405406E0
1.579879033E1,2.781836236E-1,5.394897708E-1,-2.367798404E0,2.444361802E0
1.580881833E1,2.951070005E-1,5.481442346E-1,-2.031286465E0,2.124541114E0
1.581884633E1,2.679569530E-1,5.243067810E-1,-1.659242751E0,1.760620639E0
1.582887433E1,1.510498063E-1,5.304822081E-1,-1.308663581E0,1.420150621E0
1.583890233E1,1.234865434E-1,5.418481721E-1,-8.958378768E-1,1.054217183E0
1.584892933E1,2.208336939E-1,6.165109764E-1,-4.780128032E-1,8.107709568E-1
1.585895733E1,3.255403693E-1,6.808780034E-1,-1.814589822E-1,7.762079295E-1
1.586898533E1,3.320996662E-1,7.608818007E-1,1.144066215E-2,8.302783820E-1
1.587901333E1,3.244846911E-1,8.468352860E-1,1.674759507E-1,9.222084962E-1
1.588904133E1,3.569903861E-1,8.478417380E-1,4.389007777E-1,1.019270151E0
1.589906933E1,3.509494084E-1,8.405195622E-1,7.951271886E-1,1.209076452E0
1.590909733E1,2.723270524E-1,7.809479830E-1,1.148858008E0,1.415597576E0
1.591912533E1,9.343046620E-2,6.097036114E-1,1.627112886E0,1.740104620E0
1.592915333E1,5.280540057E-2,3.288641459E-1,2.238912907E0,2.263552747E0
1.593918133E1,2.042974757E-1,1.042319546E-1,3.125661287E0,3.134064492E0
1.594920933E1,3.418316257E-1,2.103915900E-2,4.014911106E0,4.029491617E0
1.595923733E1,4.661957265E-1,-7.447503559E-2,4.591096905E0,4.615306683E0
1.596926533E1,7.529579464E-1,-2.093485564E-1,4.836516241E0,4.899251150E0
1.597929333E1,1.153347573E0,-3.105908661E-1,4.709870812E0,4.858967007E0
1.598932133E1,1.476954195E0,-3.308237672E-1,4.323366349E0,4.580647842E0
1.599934933E1,1.451247642E0,-8.864970960E-2,3.927137967E0,4.187647442E0
1.600937733E1,1.259081677E0,1.659261828E-1,3.529165944E0,3.750710657E0
1.601940533E1,9.542970233E-1,2.288709293E-1,3.252002660E0,3.396849424E0
1.602943233E1,5.155181600E-1,1.225552098E-1,3.052651783E0,3.098299801E0
1.603946033E1,-8.197891362E-2,1.481984116E-1,2.832994695E0,2.838052546E0
1.604948833E1,-5.541832755E-1,2.186537971E-1,2.559382424E0,2.627806496E0
1.605951633E1,-8.272069140E-1,8.085093090E-2,2.331033450E0,2.474777788E0
1.606954433E1,-9.303966024E-1,-3.381706840E-1,2.160989987E0,2.376946565E0
1.607957233E1,-1.142084959E0,-8.396915234E-1,2.120800905E0,2.550928534E0
1.608960033E1,-1.297866405E0,-1.358132780E0,2.219529387E0,2.907798575E0
1.609962833E1,-1.264482458E0,-1.818323123E0,2.266859089E0,3.169205736E0
1.610965633E1,-1.053207792E0,-1.906044807E0,2.178149226E0,3.080030440E0
1.611968433E1,-7.029999205E-1,-1.395853460E0,2.062919317E0,2.588098120E0
1.612971233E1,-3.940826737E-1,-5.777682757E-1,1.857812440E0,1.985090526E0
1.613974033E1,-1.346046037E-1,1.188734191E-1,1.278949201E0,1.291495392E0
1.614976833E1,1.545253182E-1,5.398490456E-1,3.878463989E-1,6.824513867E-1
1.615979633E1,3.746497449E-1,7.360075260E-1,-4.578568661E-1,9.442999627E-1
1.616982433E1,3.250073956E-1,7.599089701E-1,-1.004553403E0,1.300853178E0
1.617985233E1,1.263027634E-1,6.708089519E-1,-1.347040027E0,1.510117172E0
1.618988033E1,-5.350210545E-2,4.569861792E-1,-1.629846459E0,1.693546079E0
1.619990833E1,-2.991172038E-1,2.497902387E-1,-1.885364521E0,1.925218336E0
1.620993533E1,-5.127634636E-1,1.015386540E-1,-2.132021127E0,2.195165268E0
1.621996333E1,-5.586495981E-1,-5.613290481E-2,-2.377156872E0,2.442563217E0
1.622999133E1,-4.833225866E-1,-2.536143543E-1,-2.701659799E0,2.756245024E0
1.624001933E1,-4.007579647E-1,-3.164138889E-1,-3.105593058E0,3.147289776E0
1.625004733E1,-4.043172745E-1,-3.098698679E-1,-3.474293919E0,3.511439879E0
1.626007533E1,-4.195831486E-1,-3.304817051E-1,-3.813243561E0,3.850466807E0
1.627010333E1,-4.526373125E-1,-3.453595798E-1,-3.884701799E0,3.926201962E0
1.628013133E1,-3.275050703E-1,-3.228580322E-1,-3.847580166E0,3.874967098E0
1.629015933E1,-1.601147082E-1,-3.383258180E-1,-3.966169301E0,3.983792163E0
1.630018733E1,-9.310614673E-2,-3.207004096E-1,-4.058612026E0,4.072327232E0
1.631021533E1,-6.822819016E-2,-2.620221388E-1,-3.866161448E0,3.875630920E0
1.632024333E1,-4.370525094E-2,-2.611111426E-1,-3.500253802E0,3.510251537E0
1.633027133E1,-4.526918013E-2,-2.968894511E-1,-2.956619452E0,2.971832974E0
1.634029933E1,-1.506291905E-1,-4.467722263E-1,-2.077017539E0,2.129858312E0
