"Time (s)","Linear Acceleration x (m/s^2)","Linear Acceleration y (m/s^2)","Linear Acceleration z (m/s^2)","Absolute acceleration (m/s^2)"
1.992416685E-3,9.419952124E-2,5.767832391E-2,-1.063976902E-1,1.533649482E-1
1.201841666E-2,2.273733661E-2,2.603692040E-2,2.368654436E-1,2.393744892E-1
2.204441675E-2,2.118592411E-2,3.747407421E-2,5.202063113E-1,5.219844404E-1
3.207141673E-2,1.944389239E-2,-1.519720584E-2,5.922270513E-1,5.927410061E-1
4.209741671E-2,-3.008684814E-2,-1.964255154E-1,4.655009311E-1,5.061415992E-1
5.212341668E-2,-2.166412403E-1,-4.075952967E-1,2.846763718E-1,5.423172407E-1
6.214941666E-2,-4.978662930E-1,-6.314627454E-1,2.390815383E-1,8.389135989E-1
7.217641675E-2,-6.790020704E-1,-7.642723086E-1,4.393305480E-1,1.112729663E0
8.220241673E-2,-6.433048189E-1,-8.265039325E-1,8.129775685E-1,1.325851563E0
9.222841670E-2,-5.994517247E-1,-8.238691771E-1,1.043176017E0,1.458190315E0
1.022544167E-1,-5.771978067E-1,-6.313442662E-1,1.059946416E0,1.362071692E0
1.122804168E-1,-4.055589308E-1,-1.961569089E-1,6.771087420E-1,8.132845921E-1
1.223074168E-1,-2.533807580E-1,3.046261945E-1,6.176589310E-2,4.010161499E-1
1.323334167E-1,-5.487494946E-2,7.218219616E-1,-3.669560516E-1,8.116002391E-1
1.423594167E-1,-1.233649944E-1,9.971311670E-1,-5.251284975E-1,1.133688416E0
1.523854167E-1,-4.799415073E-1,1.006356758E0,-5.252126974E-1,1.232455335E0
1.624124167E-1,-9.109014738E-1,8.246479531E-1,-4.082444108E-1,1.294777680E0
1.724384167E-1,-1.374464053E0,5.291676810E-1,-2.117358649E-1,1.487952265E0
1.824644167E-1,-1.731263783E0,1.832784896E-1,-7.165119588E-2,1.742411888E0
1.924904167E-1,-1.878547252E0,-1.081022997E-1,-7.821411073E-2,1.883279940E0
2.025164167E-1,-1.926412705E0,-2.211246660E-1,-3.180066705E-2,1.939322900E0
2.125434167E-1,-1.963568983E0,-1.764968888E-1,4.987347507E-1,2.033590582E0
2.225694167E-1,-1.836172919E0,-8.866242729E-2,1.293430415E0,2.247744258E0
2.325954167E-1,-1.598704335E0,-6.958851747E-2,1.546300857E0,2.225251548E0
2.426214167E-1,-1.393086558E0,-4.785777904E-2,1.155534943E0,1.810591486E0
2.526484167E-1,-1.213738566E0,-1.047733337E-1,3.934445232E-1,1.280209886E0
2.626744168E-1,-1.051034821E0,-2.489146547E-1,-2.643456030E-1,1.111985296E0
2.727004167E-1,-9.160109170E-1,-3.379844137E-1,-5.844052309E-1,1.137909899E0
2.827264167E-1,-8.076935859E-1,-3.518841223E-1,-5.252588904E-1,1.025713540E0
2.927534167E-1,-7.111503544E-1,-3.710113149E-1,-2.199517876E-1,8.317229174E-1
3.027794167E-1,-6.094587958E-1,-4.015924720E-1,1.990164167E-1,7.565210317E-1
3.128054168E-1,-5.103229089E-1,-3.831497692E-1,6.931909239E-1,9.422032021E-1
3.228314167E-1,-3.976774688E-1,-2.854103436E-1,1.196399964E0,1.292663648E0
3.328584167E-1,-2.213340694E-1,-1.572315558E-1,1.670634881E0,1.692551754E0
3.428844167E-1,-1.836525652E-1,-9.394122049E-2,1.982901925E0,1.993603085E0
3.529104167E-1,-2.395681728E-1,-6.362245716E-2,2.060950559E0,2.075802961E0
3.629364168E-1,-3.796768154E-1,1.299309790E-2,1.960362663E0,1.996833762E0
3.729624167E-1,-5.033878188E-1,1.624108002E-1,1.760343449E0,1.838092930E0
3.829894167E-1,-5.721135065E-1,2.000983708E-1,1.407254069E0,1.532226235E0
3.930154167E-1,-5.657286394E-1,1.782938113E-1,1.086609135E0,1.237964857E0
4.030414167E-1,-5.247564684E-1,1.594028462E-1,8.619292885E-1,1.021616717E0
4.130674168E-1,-5.094835411E-1,6.146446913E-2,7.021237153E-1,8.696718181E-1
4.230944167E-1,-5.085440397E-1,-3.863328472E-2,7.211423689E-1,8.832643360E-1
4.331204167E-1,-4.621162704E-1,-1.668529299E-1,9.628469682E-1,1.080955888E0
4.431464167E-1,-3.920037693E-1,-2.213471525E-1,1.198081039E0,1.279867060E0
4.531724167E-1,-2.810192308E-1,-1.993236879E-1,1.206770001E0,1.254988277E0
4.631994168E-1,-1.595613058E-1,-1.443274087E-1,1.022903135E0,1.045285146E0
4.732254167E-1,-7.924862936E-2,2.014387719E-2,7.017436463E-1,7.064915188E-1
4.832514167E-1,-1.839314774E-2,1.477532192E-1,2.725188410E-1,3.105412056E-1
4.932774167E-1,2.491147757E-2,2.300690787E-1,-2.279689050E-1,3.248417835E-1
5.033034167E-1,1.847690910E-2,3.360810719E-1,-7.992570770E-1,8.672391586E-1
5.133304168E-1,-8.036267012E-3,4.116757031E-1,-1.366320051E0,1.427015048E0
5.233564167E-1,-1.263695861E-1,3.811080676E-1,-1.872505324E0,1.915068881E0
5.333824167E-1,-3.197333533E-1,2.903433470E-1,-2.230842580E0,2.272264793E0
5.434084167E-1,-4.774957632E-1,1.947442216E-1,-2.482647659E0,2.535639350E0
5.534354167E-1,-5.934400561E-1,8.013514034E-2,-2.596518676E0,2.664676711E0
5.634614168E-1,-7.168927588E-1,-1.005041353E-2,-2.473440633E0,2.575256260E0
5.734874167E-1,-7.681072050E-1,-4.743159011E-2,-2.207854251E0,2.338131482E0
5.835134167E-1,-7.096675006E-1,-1.002849378E-1,-1.914860800E0,2.044597005E0
5.935405000E-1,-5.639108862E-1,-1.085211065E-1,-1.605147235E0,1.704778568E0
6.035665000E-1,-3.838020261E-1,-2.001779661E-2,-1.079373790E0,1.145754112E0
6.135925001E-1,-1.691828991E-1,5.951851577E-2,-5.514088082E-1,5.798422034E-1
6.236185001E-1,-3.924417257E-2,8.179341070E-2,-1.669415152E-1,1.899993069E-1
6.336455001E-1,7.993333831E-2,8.321523428E-2,6.657464325E-2,1.332152278E-1
6.436715000E-1,1.122406666E-1,8.736003309E-2,1.363646704E-1,1.970407723E-1
6.536975000E-1,7.036539316E-2,6.888348944E-2,2.913316727E-2,1.026886805E-1
6.637235001E-1,2.797571093E-2,6.205708444E-2,-2.501327759E-1,2.592298743E-1
6.737505001E-1,-1.444292964E-1,1.335658275E-1,-6.593946022E-1,6.881140119E-1
6.837765001E-1,-3.438867393E-1,2.024270245E-1,-1.146520291E0,1.213978405E0
6.938025000E-1,-4.956192081E-1,2.145611664E-1,-1.659077275E0,1.744767118E0
7.038285000E-1,-6.305459020E-1,2.715236449E-1,-2.167462855E0,2.273589332E0
7.138545001E-1,-7.775038268E-1,3.359862008E-1,-2.693060884E0,2.823114566E0
7.238815001E-1,-8.940243629E-1,3.218086763E-1,-3.298790326E0,3.432908096E0
7.339075000E-1,-9.599718922E-1,2.590138194E-1,-3.884779567E0,4.010005795E0
7.439335000E-1,-9.624097426E-1,1.976937765E-1,-4.386915643E0,4.495591641E0
7.539595000E-1,-9.213231124E-1,9.314563371E-2,-4.777742368E0,4.866655373E0
7.639865001E-1,-8.282240371E-1,3.095311314E-2,-4.960350913E0,5.029114667E0
7.740125001E-1,-6.906598105E-1,1.147873483E-1,-4.896777061E0,4.946575855E0
7.840385000E-1,-5.330574681E-1,2.218459200E-1,-4.574511278E0,4.610804627E0
7.940645000E-1,-3.720157935E-1,2.013292097E-1,-4.135031626E0,4.156611090E0
8.040915000E-1,-2.760587454E-1,7.374186784E-2,-3.615804724E0,3.627077349E0
8.141175001E-1,-2.516540752E-1,-3.041370749E-2,-3.033232595E0,3.043805963E0
8.241435001E-1,-2.150832497E-1,-8.589435540E-2,-2.622322438E0,2.632529889E0
8.341695000E-1,-1.267385454E-1,-1.437364013E-1,-2.336701156E0,2.344545821E0
8.441965000E-1,-3.607264280E-2,-2.183259693E-1,-2.026132729E0,2.038180880E0
8.542225000E-1,-7.066491678E-2,-2.925397805E-1,-1.619172367E0,1.646903825E0
8.642485001E-1,-1.429208609E-1,-4.209409817E-1,-9.728047764E-1,1.069563844E0
8.742745001E-1,-2.129488698E-1,-6.069777491E-1,9.848699212E-2,6.507448783E-1
8.843015000E-1,-3.589573529E-1,-8.452977607E-1,1.240665725E0,1.543577056E0
8.943275000E-1,-5.694210099E-1,-1.231664960E0,2.379000499E0,2.738773856E0
9.043535000E-1,-8.073186332E-1,-1.646908634E0,3.263588333E0,3.743672025E0
9.143795001E-1,-8.744081238E-1,-1.897639873E0,3.590619012E0,4.154295553E0
9.244065001E-1,-8.091970512E-1,-1.859782075E0,3.464509188E0,4.014525270E0
9.344325000E-1,-6.275106123E-1,-1.521420077E0,3.282785912E0,3.672216219E0
9.444585000E-1,-3.514204381E-1,-9.714444948E-1,3.420135838E0,3.572748225E0
9.544845000E-1,6.304234028E-2,-4.077098291E-1,4.053041384E0,4.073984057E0
9.645105001E-1,5.519778885E-1,4.270718604E-2,5.122739786E0,5.152568913E0
9.745375001E-1,1.221582899E0,3.660891288E-1,6.216353885E0,6.345812923E0
9.845635000E-1,1.767936058E0,4.739580515E-1,7.141816680E0,7.372637223E0
9.945895000E-1,2.070270583E0,3.522477461E-1,7.851938801E0,8.127917427E0
1.004615500E0,2.216729740E0,1.907537162E-2,8.477430663E0,8.762481683E0
1.014642500E0,2.064378782E0,-3.382065348E-1,8.919198915E0,9.161230960E0
1.024668500E0,1.909749164E0,-4.576103329E-1,9.091850236E0,9.301520833E0
1.034694500E0,1.789046699E0,-5.029630186E-1,8.936017261E0,9.127215588E0
1.044720500E0,1.639975591E0,-4.595838413E-1,8.396493503E0,8.567487403E0
1.054747500E0,1.534880075E0,-3.748448226E-1,7.575163772E0,7.738182711E0
1.064773500E0,1.487468804E0,-3.387389968E-1,6.615090723E0,6.788721001E0
1.074799500E0,1.364268994E0,-2.664176369E-1,5.763273025E0,5.928534743E0
1.084825500E0,1.199028945E0,-7.924022399E-2,4.979970660E0,5.122895392E0
1.094852500E0,1.109996682E0,1.781150327E-1,4.323141816E0,4.466919829E0
1.104878500E0,9.614228788E-1,4.352430154E-1,3.904330902E0,4.044449311E0
1.114904500E0,6.798235311E-1,6.288722827E-1,3.604008551E0,3.721090971E0
1.124930500E0,3.698931080E-1,6.822154078E-1,3.202884294E0,3.295558614E0
1.134957500E0,2.204338905E-1,6.419938000E-1,2.588788072E0,2.676297969E0
1.144983500E0,1.253653999E-1,5.217929899E-1,1.825808875E0,1.903040319E0
1.155009500E0,4.120094329E-2,4.159065291E-1,1.077324341E0,1.155553328E0
1.165035500E0,-2.155130200E-2,3.616947269E-1,4.173111033E-1,5.526627282E-1
1.175061500E0,-1.590534020E-1,3.927788177E-1,-2.319549519E-1,4.830903477E-1
1.185088500E0,-3.046110649E-1,5.248670539E-1,-9.281782418E-1,1.108958148E0
1.195114500E0,-3.261992774E-1,6.737099017E-1,-1.611604316E0,1.776952298E0
1.205140500E0,-2.432005363E-1,8.298071708E-1,-2.453886375E0,2.601784922E0
1.215166500E0,-1.339577372E-1,9.396909709E-1,-3.321800289E0,3.454753385E0
1.225193500E0,-5.471115433E-2,9.415657344E-1,-4.006360137E0,4.115879116E0
1.235219500E0,-1.243561705E-1,8.363548829E-1,-4.501387169E0,4.580113578E0
1.245245500E0,-3.264934655E-1,6.962632703E-1,-4.885253953E0,4.945410671E0
1.255271500E0,-5.134136740E-1,5.830699826E-1,-5.178039828E0,5.235996626E0
1.265298500E0,-4.416316467E-1,4.289691357E-1,-5.195500783E0,5.231852580E0
1.275324500E0,-4.784659624E-1,3.372448505E-1,-5.031945391E0,5.065879803E0
1.285350500E0,-5.047969247E-1,3.602413284E-1,-4.904213549E0,4.943268584E0
1.295376500E0,-4.942031586E-1,4.202025515E-1,-4.769980774E0,4.813888608E0
1.305403500E0,-4.567932576E-1,4.728346552E-1,-4.492151492E0,4.540006356E0
1.315429500E0,-4.580712397E-1,4.739837793E-1,-3.814400725E0,3.870935646E0
1.325455500E0,-4.963592463E-1,4.348382054E-1,-2.970021855E0,3.042447466E0
1.335481500E0,-4.231688440E-1,3.891230289E-1,-2.244797544E0,2.317240734E0
1.345508500E0,-3.112173222E-1,3.300827057E-1,-1.812416997E0,1.868332461E0
1.355534500E0,-1.647431814E-1,2.863171188E-1,-1.504095654E0,1.539942059E0
1.365560500E0,-4.917888433E-2,2.286901956E-1,-1.203546431E0,1.226067608E0
1.375586500E0,-4.712198004E-3,1.493957387E-1,-8.028911215E-1,8.166856461E-1
1.385613500E0,7.679301806E-2,-8.935185056E-3,-2.499865955E-1,2.616683074E-1
1.395639500E0,1.305914220E-1,-1.282747552E-1,1.846965855E-1,2.600410757E-1
1.405665500E0,1.863259122E-1,-1.055567875E-1,2.548339373E-1,3.328662142E-1
1.415691500E0,1.970219314E-1,-3.896792818E-2,1.408366209E-1,2.452979712E-1
1.425718500E0,2.458653317E-1,5.312718015E-2,-7.553199291E-2,2.626353757E-1
1.435744500E0,3.206186948E-1,1.769061026E-1,-2.515659285E-1,4.442719133E-1
1.445770500E0,3.321728660E-1,2.969862957E-1,-2.418121880E-1,5.069643055E-1
1.455796500E0,2.818129172E-1,3.205768141E-1,-1.126647359E-1,4.414536859E-1
1.465822500E0,1.744620578E-1,2.741584917E-1,-4.346820116E-3,3.249904353E-1
1.475849500E0,1.193723693E-1,2.147436178E-1,3.515872300E-2,2.481949229E-1
1.485875500E0,1.617133735E-1,1.824541783E-1,1.129073954E-1,2.686797765E-1
1.495901500E0,2.160603194E-1,7.937470995E-2,9.259416819E-2,2.481049902E-1
1.505928500E0,1.672381152E-1,-4.843588594E-2,-6.281839192E-2,1.850966574E-1
1.515954500E0,1.009635803E-1,-1.629731561E-1,-2.202698761E-1,2.920149183E-1
1.525980500E0,2.525982544E-2,-2.125215845E-1,-3.555528116E-1,4.149955235E-1
1.536006500E0,-6.207550317E-3,-2.015573973E-1,-5.884474111E-1,6.220404116E-1
1.546032500E0,-2.603180408E-3,-1.368939165E-1,-9.236881649E-1,9.337807810E-1
1.556059500E0,-9.312714189E-3,-3.188559785E-2,-1.211008063E0,1.211463556E0
1.566085500E0,-1.511212885E-2,1.008268286E-1,-1.304150700E0,1.308129762E0
1.576111500E0,-6.153653607E-2,2.310954477E-1,-1.230338373E0,1.253365216E0
1.586137500E0,-2.289965531E-1,2.761992978E-1,-1.071550800E0,1.130020615E0
1.596164542E0,-4.125891843E-1,2.341965185E-1,-8.159333360E-1,9.438352892E-1
1.606190542E0,-5.220654336E-1,1.231775911E-1,-4.890646255E-1,7.258851450E-1
1.616216542E0,-6.784522860E-1,-4.419384062E-2,-3.192018414E-1,7.510928141E-1
1.626242542E0,-8.177361788E-1,-1.952250455E-1,-2.765908420E-1,8.850467617E-1
1.636269542E0,-9.175971204E-1,-2.861533419E-1,-3.041628027E-1,1.008158331E0
1.646295542E0,-9.449559501E-1,-3.328100298E-1,-4.058645940E-1,1.080939560E0
1.656321542E0,-9.089974742E-1,-3.347858405E-1,-6.481445593E-1,1.165525348E0
1.666347542E0,-8.775910556E-1,-2.557544352E-1,-9.765861708E-1,1.337646045E0
1.676374542E0,-8.126192804E-1,-7.529927373E-2,-1.302787714E0,1.537294996E0
1.686400542E0,-7.116960458E-1,1.085294388E-1,-1.666014996E0,1.814909328E0
1.696426542E0,-5.891443992E-1,2.833655722E-1,-2.012554325E0,2.116072324E0
1.706452542E0,-4.406720455E-1,4.702304150E-1,-2.325911874E0,2.413539836E0
1.716479542E0,-3.528790261E-1,6.208952187E-1,-2.618137586E0,2.713794189E0
1.726505542E0,-3.024554157E-1,6.521702942E-1,-2.876734791E0,2.965199560E0
1.736531542E0,-3.159159985E-1,6.035743041E-1,-3.171773599E0,3.244110451E0
1.746557542E0,-3.006600282E-1,6.109069318E-1,-3.512989038E0,3.578364949E0
1.756584542E0,-2.931647748E-1,5.928411916E-1,-3.710078797E0,3.768566165E0
1.766610542E0,-3.511619912E-1,4.993190338E-1,-3.812587504E0,3.861147202E0
1.776636542E0,-3.845617256E-1,3.413661508E-1,-4.058373460E0,4.090820664E0
1.786662542E0,-5.302228841E-1,1.723992332E-1,-4.215418562E0,4.252130226E0
1.796689542E0,-4.007194097E-1,3.128207384E-1,-4.151451777E0,4.182461562E0
1.806715542E0,-3.577419361E-1,2.028068011E-1,-3.969033852E0,3.990280643E0
1.816741542E0,-2.854886962E-1,-2.071531096E-1,-4.013580864E0,4.029050454E0
1.826767542E0,-2.031821193E-1,-4.370763002E-1,-4.313128459E0,4.339976472E0
1.836794542E0,-4.485633016E-2,-4.054981928E-1,-4.492618684E0,4.511104467E0
1.846820542E0,1.065812927E-1,-3.504676709E-1,-4.056703495E0,4.073208858E0
1.856846542E0,-1.081157483E-1,-2.892430838E-1,-3.250522730E0,3.265156749E0
1.866872542E0,-3.264040761E-1,-3.264059765E-1,-1.936930531E0,1.991175623E0
1.876899542E0,-3.651740395E-1,-3.493331283E-1,-5.540394706E-1,7.498969587E-1
1.886925542E0,-4.180973346E-1,-4.079103886E-1,5.558456755E-1,8.063254189E-1
1.896951542E0,-4.024596872E-1,-5.985219444E-1,1.417767947E0,1.590681700E0
1.906977542E0,-1.677473346E-1,-7.764186566E-1,2.224876665E0,2.362422755E0
1.917004542E0,2.463871226E-1,-7.476466280E-1,3.065777612E0,3.165228975E0
1.927030542E0,6.169458631E-1,-6.981245121E-1,3.815395921E0,3.927498704E0
1.937056542E0,9.286417799E-1,-6.037466508E-1,5.166726635E0,5.284122415E0
1.947082542E0,1.115009646E0,-3.371929199E-1,6.836137109E0,6.934674913E0
1.957109542E0,1.132200533E0,-1.379002954E-1,8.220294676E0,8.299044469E0
1.967135542E0,1.136275896E0,-8.150346190E-2,9.066838186E0,9.138124557E0
1.977161542E0,9.641996484E-1,-2.025555901E-1,9.303440505E0,9.355464444E0
1.987187542E0,9.877927250E-1,-3.396621260E-1,9.118428755E0,9.178063401E0
1.997214542E0,1.059671743E0,-3.367036542E-1,8.768676966E0,8.838889596E0
2.007240542E0,1.028239304E0,-2.480887355E-1,8.404888936E0,8.471185402E0
2.017266542E0,1.070543617E0,-2.258477544E-1,8.272199825E0,8.344241175E0
2.027292542E0,1.265382783E0,-3.112660003E-1,8.055758706E0,8.160473542E0
2.037318542E0,1.327477728E0,-4.169975464E-1,7.803607471E0,7.926687431E0
2.047345542E0,1.366834314E0,-5.309073738E-1,7.668247937E0,7.807184198E0
2.057371542E0,1.468683747E0,-7.127337074E-1,7.403255632E0,7.581109103E0
2.067397542E0,1.520288934E0,-8.237039933E-1,7.146345933E0,7.352552408E0
2.077423542E0,1.483176656E0,-8.550279661E-1,7.002537757E0,7.208773880E0
2.087450542E0,1.390331934E0,-8.514639419E-1,6.663765870E0,6.860305336E0
2.097476542E0,1.291169881E0,-8.305037203E-1,5.977747725E0,6.171735895E0
2.107502542E0,1.176667658E0,-7.417084882E-1,5.182755607E0,5.366156347E0
2.117528542E0,1.046046050E0,-6.156248309E-1,4.391158383E0,4.555818062E0
2.127555542E0,9.702896697E-1,-5.306471727E-1,3.483267640E0,3.654613785E0
2.137581542E0,8.773775592E-1,-3.050854568E-1,2.552979723E0,2.716721183E0
2.147607542E0,8.520178194E-1,2.073757058E-2,1.830071495E0,2.018793226E0
2.157633542E0,8.992757472E-1,3.607579299E-1,1.056763777E0,1.433733878E0
2.167660542E0,8.900770538E-1,6.574520840E-1,6.628754497E-2,1.108546094E0
2.177686542E0,7.706753021E-1,9.276908033E-1,-1.009083241E0,1.572513795E0
2.187712542E0,5.572346815E-1,1.088329678E0,-2.015068043E0,2.357004708E0
2.197738542E0,4.293296166E-1,1.130070100E0,-2.891808913E0,3.134316695E0
2.207765542E0,3.378755093E-1,1.183470601E0,-3.688810719E0,3.888712775E0
2.217791542E0,2.706673933E-1,1.211335215E0,-4.378527812E0,4.551054784E0
2.227817542E0,2.040122777E-1,1.105592851E0,-4.882925007E0,5.010679912E0
2.237843542E0,6.452161275E-2,9.678301115E-1,-5.124870511E0,5.215856202E0
2.247870542E0,-7.998815596E-2,8.286540268E-1,-5.235612098E0,5.301386577E0
2.257896542E0,-2.480980179E-1,6.786973574E-1,-5.323577026E0,5.372397517E0
2.267922542E0,-5.287559639E-1,4.783307821E-1,-5.343296176E0,5.390658330E0
2.277948542E0,-8.321023491E-1,3.101915744E-1,-5.349032879E0,5.422247308E0
2.287975542E0,-1.147544065E0,2.453566971E-1,-5.327289423E0,5.455004114E0
2.298001542E0,-1.410960911E0,2.612852800E-1,-5.124679307E0,5.321787171E0
2.308027542E0,-1.558965341E0,2.867994227E-1,-4.747478349E0,5.005115136E0
2.318053542E0,-1.617350374E0,3.240257577E-1,-4.379720644E0,4.680039300E0
2.328080542E0,-1.516146474E0,4.321908054E-1,-3.981693074E0,4.282448920E0
2.338106542E0,-1.372535349E0,4.759894108E-1,-3.634385421E0,3.913971971E0
2.348132542E0,-1.258088235E0,3.947439207E-1,-3.329031540E0,3.580650746E0
2.358158542E0,-1.141310568E0,1.944718693E-1,-3.159893226E0,3.365313406E0
2.368185542E0,-1.067167727E0,-7.957946300E-3,-3.025454628E0,3.208159285E0
2.378211542E0,-1.024199317E0,-1.767813193E-1,-2.737271097E0,2.927949612E0
2.388237542E0,-9.456239945E-1,-2.830902415E-1,-2.369252021E0,2.566651508E0
2.398263542E0,-9.717613408E-1,-3.580454066E-1,-1.827901593E0,2.100890490E0
2.408290542E0,-9.411323096E-1,-3.639019047E-1,-1.038748505E0,1.448155060E0
2.418316542E0,-8.423509102E-1,-2.458459263E-1,-7.582552314E-2,8.807637511E-1
2.428342542E0,-7.052923214E-1,-9.534023993E-2,1.022997276E0,1.246214446E0
2.438368542E0,-6.165358271E-1,6.475723727E-2,2.057069762E0,2.148451985E0
2.448395542E0,-5.209413064E-1,3.222174332E-1,2.765228974E0,2.832259733E0
2.458421542E0,-4.135659617E-1,6.056615409E-1,3.256772234E0,3.338327139E0
2.468447542E0,-4.048444010E-1,8.642205200E-1,3.289472787E0,3.425114205E0
2.478473542E0,-4.540342489E-1,1.078211802E0,2.591279570E0,2.843135171E0
2.488500542E0,-5.142605701E-1,1.204137950E0,1.484328557E0,1.979303767E0
2.498526542E0,-5.192147698E-1,1.232838204E0,3.606299490E-1,1.385470308E0
2.508552542E0,-5.318291143E-1,1.179889547E0,-5.377836263E-1,1.401496621E0
2.518578542E0,-4.873082681E-1,1.113181295E0,-1.206095232E0,1.712106204E0
2.528605542E0,-4.313964611E-1,1.011468613E0,-1.656189335E0,1.987997680E0
2.538631542E0,-4.550961033E-1,8.454922537E-1,-1.967981585E0,2.189730835E0
2.548657542E0,-5.211490287E-1,6.607211161E-1,-2.165446735E0,2.323210767E0
2.558683542E0,-5.991083470E-1,4.436825210E-1,-2.182479089E0,2.306295724E0
2.568710542E0,-7.202992004E-1,2.823674525E-1,-2.072821577E0,2.212498950E0
2.578736542E0,-7.808573511E-1,1.754882441E-1,-1.909769629E0,2.070689345E0
2.588762542E0,-8.066143361E-1,9.798911998E-2,-1.827844291E0,2.000310802E0
2.598789125E0,-8.771507603E-1,2.120045079E-2,-1.847024912E0,2.044833475E0
2.608816125E0,-8.522669108E-1,-4.277143233E-2,-1.969799484E0,2.146694736E0
2.618842125E0,-7.567377327E-1,-7.781343028E-2,-2.070681496E0,2.205998364E0
2.628868125E0,-6.686640470E-1,-1.021382128E-1,-2.032864628E0,2.142447764E0
2.638894125E0,-6.477589354E-1,-1.165544134E-1,-2.048281397E0,2.151425865E0
2.648921125E0,-6.050271910E-1,-1.255993617E-1,-2.218293870E0,2.302750702E0
2.658947125E0,-5.008477883E-1,-3.036089983E-2,-2.411915061E0,2.463555267E0
2.668973125E0,-4.600497182E-1,9.686815392E-2,-2.463253030E0,2.507717024E0
2.678999125E0,-5.430927520E-1,2.550960753E-1,-2.420058478E0,2.493332465E0
2.689026125E0,-6.335750520E-1,4.068281420E-1,-2.550996348E0,2.659794889E0
2.699052125E0,-7.018025570E-1,4.719063732E-1,-2.837157912E0,2.960521487E0
2.709078125E0,-6.916985683E-1,6.150523154E-1,-3.277166153E0,3.405371382E0
2.719104125E0,-6.634666032E-1,7.476574454E-1,-3.815011175E0,3.943791304E0
2.729131125E0,-5.891138475E-1,7.975675240E-1,-4.230112615E0,4.344769478E0
2.739157125E0,-3.728380582E-1,7.687182391E-1,-4.437815655E0,4.519307883E0
2.749183125E0,-1.689016481E-1,5.919213150E-1,-4.514214206E0,4.555988203E0
2.759209125E0,2.871816114E-2,3.842586936E-1,-4.401047194E0,4.417883643E0
2.769236125E0,7.251146749E-2,1.916553569E-1,-4.174662884E0,4.179688970E0
2.779262125E0,-7.672292456E-2,-1.170405728E-1,-3.630687642E0,3.633383775E0
2.789288125E0,-2.196173269E-1,-4.335730141E-1,-2.560938368E0,2.606649699E0
2.799314125E0,-5.163646907E-2,-5.074910293E-1,-1.078801932E0,1.193326057E0
2.809341125E0,2.999276644E-1,-4.116356497E-1,5.461363739E-1,7.467700120E-1
2.819367125E0,5.732968368E-1,-2.279959483E-1,2.067901145E0,2.157977423E0
2.829393125E0,7.375126724E-1,1.276023254E-2,3.101887093E0,3.188383807E0
2.839419125E0,8.310885881E-1,2.464421596E-1,3.360396590E0,3.470404475E0
2.849446125E0,9.947780281E-1,3.430016170E-1,3.320372983E0,3.483117882E0
2.859472125E0,9.869784272E-1,1.820953055E-1,3.566861774E0,3.705372860E0
2.869498125E0,7.145802581E-1,-6.661798574E-2,3.741545588E0,3.809754098E0
2.879524125E0,4.078186604E-1,-3.572884114E-1,3.853365986E0,3.891323745E0
2.889551125E0,1.471142647E-1,-5.630938109E-1,4.261196998E0,4.300757736E0
2.899577125E0,-2.018400371E-2,-6.595632944E-1,4.814858739E0,4.859865822E0
2.909603125E0,-9.964243848E-2,-8.125711870E-1,5.613509459E0,5.672890709E0
2.919629125E0,-2.059032673E-1,-9.726197851E-1,6.632194414E0,6.706294666E0
2.929656125E0,-1.800162183E-1,-1.212450206E0,8.018965686E0,8.112105276E0
2.939682125E0,1.595987280E-1,-1.409621022E0,9.591311211E0,9.695656446E0
2.949708125E0,5.364498033E-1,-1.587183127E0,1.014932562E1,1.028667775E1
2.959734125E0,6.432619149E-1,-1.733671667E0,9.804366208E0,9.977224067E0
2.969761125E0,6.539505520E-1,-1.785769481E0,9.509509833E0,9.697803939E0
2.979787125E0,8.303675533E-1,-1.544138264E0,9.191237699E0,9.356961243E0
2.989813125E0,1.196750285E0,-1.253308868E0,8.596004595E0,8.768938895E0
2.999839125E0,1.659483949E0,-1.001318358E0,7.752899247E0,7.991493738E0
3.009866125E0,2.053758776E0,-7.052632315E-1,6.884334539E0,7.218682939E0
3.019892125E0,2.201482394E0,-4.519399955E-1,6.152632683E0,6.550241478E0
3.029918125E0,2.018948986E0,-3.111127301E-1,5.590693039E0,5.952209237E0
3.039944125E0,1.662422175E0,-1.940804896E-1,5.216400486E0,5.478334487E0
3.049971125E0,1.287792529E0,-4.816059172E-2,4.749333671E0,4.921066892E0
3.059997125E0,9.539757188E-1,8.012403063E-2,3.958504186E0,4.072621382E0
3.070023125E0,6.739822358E-1,1.835180061E-1,3.014598688E0,3.094468640E0
3.080049125E0,5.176702277E-1,4.043008658E-1,2.237629443E0,2.332043563E0
3.090076125E0,4.912501685E-1,6.455310731E-1,1.654398333E0,1.842571827E0
3.100102125E0,4.667132051E-1,8.332016256E-1,1.041815954E0,1.413303452E0
3.110128125E0,2.378267258E-1,8.916259081E-1,4.249341184E-1,1.015936670E0
3.120154125E0,-1.317405461E-1,8.382885571E-1,-5.735767722E-2,8.505134799E-1
3.130181125E0,-5.118047395E-1,7.472654627E-1,-6.024848217E-1,1.087813276E0
3.140207125E0,-7.448171604E-1,7.680007857E-1,-1.391036816E0,1.754867868E0
3.150233125E0,-7.938219438E-1,8.301511332E-1,-2.283043597E0,2.555697997E0
3.160259125E0,-7.539284380E-1,8.293504301E-1,-3.143457288E0,3.337297401E0
3.170286125E0,-8.031561466E-1,8.306972632E-1,-3.880333344E0,4.048716414E0
3.180312125E0,-8.362921715E-1,8.673361357E-1,-4.385813443E0,4.548298157E0
3.190338125E0,-7.892900594E-1,8.633776438E-1,-4.674813246E0,4.818949952E0
3.200364125E0,-7.233452343E-1,8.308840817E-1,-4.707140747E0,4.834332498E0
3.210391125E0,-5.968009626E-1,7.996841430E-1,-4.476190347E0,4.586059980E0
3.220417125E0,-3.845688884E-1,7.368992264E-1,-4.076178816E0,4.160065797E0
3.230443125E0,-2.603808984E-1,7.246300869E-1,-3.868976882E0,3.944853494E0
3.240469125E0,-2.149932025E-1,7.175083244E-1,-3.864580361E0,3.936498652E0
3.250496125E0,-2.690017408E-1,6.468503512E-1,-3.751771199E0,3.816616884E0
3.260522125E0,-3.111727372E-1,6.027963321E-1,-3.503763885E0,3.568830797E0
3.270548125E0,-2.907981142E-1,5.726618657E-1,-3.364339952E0,3.425096855E0
3.280574125E0,-3.794575448E-1,5.218552992E-1,-3.490773126E0,3.549903943E0
3.290601125E0,-4.792127980E-1,5.091453893E-1,-3.840434284E0,3.903563682E0
3.300627125E0,-5.655391896E-1,4.912036832E-1,-4.167559687E0,4.234344032E0
3.310653125E0,-6.249105748E-1,4.738647153E-1,-4.341349461E0,4.411618313E0
3.320679125E0,-6.948279981E-1,4.911999556E-1,-4.479940166E0,4.560035881E0
3.330706125E0,-8.127083773E-1,4.272288947E-1,-4.616648068E0,4.707064778E0
3.340732125E0,-8.469173663E-1,3.155726573E-1,-4.659929743E0,4.746767357E0
3.350758125E0,-8.445731445E-1,2.080945844E-1,-4.482594218E0,4.566208282E0
3.360784125E0,-9.653865601E-1,6.003606744E-2,-4.077578055E0,4.190730048E0
3.370811125E0,-1.044267107E0,-3.569279306E-2,-3.570427406E0,3.720177366E0
3.380837125E0,-9.107288347E-1,-1.339600760E-1,-3.074480023E0,3.209330106E0
3.390863125E0,-7.100921546E-1,-2.155446681E-1,-2.768295838E0,2.866034232E0
3.400890125E0,-5.838253333E-1,-2.273463592E-1,-2.588029688E0,2.662787271E0
3.410916125E0,-4.845292327E-1,-2.129582984E-1,-2.307674409E0,2.367589701E0
3.420942125E0,-3.631995079E-1,-2.931677715E-1,-1.818660654E0,1.877601608E0
3.430968125E0,-2.330407798E-1,-3.656037368E-1,-1.319216051E0,1.388634252E0
3.440994125E0,-2.018895923E-1,-3.440957407E-1,-9.334267026E-1,1.015109204E0
3.451021125E0,-2.299578354E-1,-2.542419067E-1,-9.851716375E-1,1.043112031E0
3.461047125E0,-2.889180882E-1,-1.317681742E-1,-1.409227504E0,1.444561758E0
3.471073125E0,-3.194689129E-1,-2.887954429E-2,-1.951474310E0,1.977661851E0
3.481100125E0,-3.996250302E-1,8.485099286E-2,-2.517837372E0,2.550765550E0
3.491126125E0,-4.646842213E-1,1.320062289E-1,-3.096929823E0,3.134378950E0
3.501152125E0,-4.862852977E-1,1.088266236E-1,-3.613548868E0,3.647746159E0
3.511178125E0,-5.714881468E-1,7.751069069E-2,-4.019897026E0,4.061056354E0
3.521205125E0,-7.275672164E-1,4.915878452E-2,-4.344990522E0,4.405759104E0
3.531231125E0,-6.772078523E-1,5.292241797E-2,-4.476830032E0,4.528070052E0
3.541257125E0,-5.522530000E-1,9.052366912E-3,-4.454864967E0,4.488973958E0
3.551283125E0,-5.291965516E-1,-8.958584882E-2,-4.215573514E0,4.249604059E0
3.561310125E0,-4.730419390E-1,-3.459953915E-1,-3.596490785E0,3.643930221E0
3.571336125E0,-4.235710593E-1,-7.005878710E-1,-2.678786076E0,2.801094545E0
3.581362125E0,-3.051776601E-1,-9.621053220E-1,-1.570287305E0,1.866703585E0
3.591388125E0,6.863710240E-2,-1.140048154E0,-4.897937733E-1,1.242706235E0
3.601415042E0,5.781522916E-1,-1.239697427E0,2.285910487E-1,1.386853867E0
3.611441042E0,9.486739752E-1,-1.127755041E0,6.810398251E-1,1.623462038E0
3.621467042E0,1.070195927E0,-7.681170722E-1,1.176242273E0,1.766032005E0
3.631493042E0,1.095027152E0,-3.914382704E-1,1.993211735E0,2.307639791E0
3.641520042E0,1.063094557E0,-1.454275623E-1,3.221493643E0,3.395488257E0
3.651546042E0,1.076792975E0,-4.988405854E-2,4.539044992E0,4.665286804E0
3.661572042E0,1.005708740E0,-1.756224377E-1,5.889434304E0,5.977267748E0
3.671598042E0,9.816911555E-1,-3.238973017E-1,7.114699048E0,7.189406758E0
3.681625042E0,8.113862488E-1,-3.799961465E-1,8.148185644E0,8.197296749E0
3.691651042E0,5.154862196E-1,-3.907855750E-1,8.788874418E0,8.812647329E0
3.701677042E0,2.197195800E-1,-2.668520851E-1,9.287050760E0,9.293481508E0
3.711703042E0,-4.239618726E-2,1.718825586E-2,9.769233212E0,9.769340327E0
3.721730042E0,-2.255239648E-1,2.046279895E-1,1.012966026E1,1.013423656E1
3.731756042E0,-2.639113010E-1,2.882089671E-1,1.007988759E1,1.008745991E1
3.741782042E0,-2.560968262E-1,1.762183421E-1,9.582251535E0,9.587292786E0
3.751808042E0,-2.601899868E-1,1.365609907E-2,8.916603920E0,8.920409788E0
3.761835042E0,-1.741825609E-1,-8.710239016E-2,8.275167287E0,8.277458548E0
3.771861042E0,-6.042837907E-2,-2.252777971E-1,7.834492464E0,7.837963629E0
3.781887042E0,4.203179609E-2,-1.595069267E-1,7.348453188E0,7.350304306E0
3.791913042E0,2.586069994E-1,6.113176256E-2,6.801530364E0,6.806719471E0
3.801940042E0,5.406818353E-1,3.002852947E-1,6.125696899E0,6.156839336E0
3.811966042E0,7.514851789E-1,5.291100859E-1,5.149741058E0,5.231110821E0
3.821992042E0,8.912774871E-1,7.536633398E-1,4.001649036E0,4.168402451E0
3.832018042E0,9.529167149E-1,9.784071399E-1,2.924177930E0,3.227405670E0
3.842045042E0,9.135819105E-1,1.092194103E0,1.946059788E0,2.411362388E0
3.852071042E0,8.883626501E-1,1.101060894E0,9.986582404E-1,1.731716366E0
3.862097042E0,8.423935948E-1,1.045713635E0,1.137885708E-1,1.347624508E0
3.872123042E0,6.912357612E-1,9.533557677E-1,-6.582672590E-1,1.349077419E0
3.882150042E0,5.047956821E-1,8.133094711E-1,-1.250508928E0,1.574821754E0
3.892176042E0,3.562930326E-1,6.834178877E-1,-1.834465093E0,1.989790670E0
3.902202042E0,2.125266277E-1,5.748840635E-1,-2.369213430E0,2.447208926E0
3.912228042E0,8.816574287E-2,4.641514669E-1,-2.704697428E0,2.745650735E0
3.922255042E0,-2.002408236E-2,4.205251351E-1,-2.988566299E0,3.018074034E0
3.932281042E0,-1.596226285E-1,3.543124345E-1,-3.215779159E0,3.239174630E0
3.942307042E0,-2.570239754E-1,3.187065822E-1,-3.439008311E0,3.463295161E0
3.952333042E0,-2.618456259E-1,2.322804225E-1,-3.675712956E0,3.692341136E0
3.962360042E0,-2.535469651E-1,1.272070901E-1,-4.042958445E0,4.052897815E0
3.972386042E0,-2.653074700E-1,1.362580683E-1,-4.495930547E0,4.505812446E0
3.982412042E0,-2.904947899E-1,1.950343532E-1,-4.877257301E0,4.889791856E0
3.992438042E0,-2.701333963E-1,2.182990355E-1,-5.134807270E0,5.146539829E0
4.002465042E0,-3.004151395E-1,2.094605671E-1,-5.276344972E0,5.289039539E0
4.012491042E0,-3.312480192E-1,1.853106528E-1,-5.233726956E0,5.247472071E0
4.022517042E0,-3.264258936E-1,1.730100114E-1,-5.053395317E0,5.066881739E0
4.032543042E0,-3.697402033E-1,2.030760654E-1,-4.787509557E0,4.806058204E0
4.042570042E0,-4.298868562E-1,1.699045186E-1,-4.454003087E0,4.477925162E0
4.052596042E0,-4.229435800E-1,1.327363269E-1,-4.011891603E0,4.036307030E0
4.062622042E0,-4.134122530E-1,1.384096610E-1,-3.583795896E0,3.610216053E0
4.072648042E0,-4.189081241E-1,1.004667863E-1,-3.192466310E0,3.221400120E0
4.082675042E0,-4.589508071E-1,-3.734364476E-2,-2.572026443E0,2.612919903E0
4.092701042E0,-4.713048043E-1,-2.421968252E-1,-1.680072287E0,1.761655588E0
4.102727042E0,-3.897103451E-1,-4.157058965E-1,-7.923345584E-1,9.759506124E-1
4.112753042E0,-2.669632553E-1,-5.537624587E-1,-2.144583285E-1,6.510872561E-1
4.122780042E0,-1.407726670E-1,-6.634432143E-1,-2.450860441E-2,6.786564035E-1
4.132806042E0,6.345171846E-2,-8.164865557E-1,-1.704229474E-2,8.191256656E-1
4.142832042E0,2.006999762E-1,-9.148557995E-1,1.895345718E-1,9.555966556E-1
4.152858042E0,1.600953759E-1,-9.172502343E-1,5.645404851E-1,1.088891400E0
4.162885042E0,1.108482984E-1,-8.148616876E-1,7.551281404E-1,1.116470073E0
4.172911042E0,1.382217461E-1,-5.726543009E-1,6.549542266E-1,8.809104599E-1
4.182937042E0,2.576327801E-1,-3.285983900E-1,4.355134857E-1,6.033436397E-1
4.192963042E0,3.898543328E-1,-1.284253210E-1,2.136180836E-1,4.627225405E-1
4.202990042E0,5.153535609E-1,9.012912825E-2,2.268368840E-2,5.236669764E-1
4.213016042E0,6.139785473E-1,2.194596713E-1,-2.078445429E-1,6.843475417E-1
4.223042042E0,6.092061961E-1,3.015105422E-1,-4.711622053E-1,8.270638549E-1
4.233069042E0,5.256141087E-1,3.296875435E-1,-7.555029470E-1,9.776240436E-1
4.243095042E0,4.737806616E-1,2.823990275E-1,-1.023049316E0,1.162259536E0
4.253121042E0,4.382743216E-1,1.672099755E-1,-1.382754820E0,1.460155625E0
4.263147042E0,4.471170659E-1,6.801576264E-2,-1.764738216E0,1.821768587E0
4.273174042E0,4.744830584E-1,-3.429242145E-2,-1.987588468E0,2.043726513E0
4.283200042E0,5.278603166E-1,-1.533442537E-1,-2.027903851E0,2.101081865E0
4.293226042E0,5.457388363E-1,-2.307335051E-1,-2.057118879E0,2.140749147E0
4.303252042E0,5.832291365E-1,-2.911053854E-1,-2.085155693E0,2.184667672E0
4.313279042E0,7.279399764E-1,-3.327021487E-1,-2.034935712E0,2.186675715E0
4.323305042E0,7.416305740E-1,-3.498561252E-1,-1.979739751E0,2.142845001E0
4.333331042E0,6.060473840E-1,-2.430511399E-1,-1.842441280E0,1.954726876E0
4.343357042E0,3.350602211E-1,-1.123964218E-1,-1.656439011E0,1.693720315E0
4.353384042E0,1.445548654E-2,2.444552757E-2,-1.588400810E0,1.588654675E0
4.363410042E0,-2.955361131E-1,1.664478640E-1,-1.702243175E0,1.735706862E0
4.373436042E0,-5.960737883E-1,2.747303311E-1,-2.069455335E0,2.171042629E0
4.383462042E0,-7.935129185E-1,3.192225624E-1,-2.639168267E0,2.774306208E0
4.393489042E0,-8.192583552E-1,3.424688626E-1,-3.140268801E0,3.263396592E0
4.403515042E0,-6.738970126E-1,3.696122955E-1,-3.404744212E0,3.490420259E0
4.413541042E0,-5.247045743E-1,3.298679667E-1,-3.268053852E0,3.326304818E0
4.423567042E0,-3.412943763E-1,2.017934056E-1,-2.834372299E0,2.861969384E0
4.433594042E0,-1.808527721E-1,1.293399717E-1,-2.306418427E0,2.317110811E0
4.443620042E0,-1.573371711E-1,6.051429659E-2,-1.670519691E0,1.679003575E0
4.453646042E0,5.160109341E-2,-9.473600328E-2,-7.981332421E-1,8.053907470E-1
4.463672042E0,2.195704030E-1,-2.194065347E-1,4.781788641E-1,5.700924622E-1
4.473699042E0,2.874692944E-1,-3.237022240E-1,2.086785897E0,2.131219629E0
4.483725042E0,3.629359446E-1,-3.784282887E-1,3.454876485E0,3.494438724E0
4.493751042E0,3.201243858E-1,-4.138953061E-1,4.267030181E0,4.298992383E0
4.503777042E0,2.556696506E-1,-3.291396960E-1,4.489399207E0,4.508703267E0
4.513804042E0,3.699062642E-1,-2.523092557E-1,4.236681962E0,4.260277532E0
4.523830042E0,4.843054305E-1,-1.722132187E-1,3.719662968E0,3.755010218E0
4.533856042E0,4.542804167E-1,-1.425763869E-1,3.203066728E0,3.238261136E0
4.543882042E0,3.642829970E-1,-2.086154982E-1,2.944377136E0,2.974151854E0
4.553909042E0,2.116722033E-1,-2.322761833E-1,3.009380048E0,3.025743813E0
4.563935042E0,1.463093955E-1,-2.050932817E-1,3.624090813E0,3.632836896E0
4.573961042E0,3.022928631E-1,-1.749146323E-1,4.691389518E0,4.704371553E0
4.583987042E0,5.866055381E-1,-2.282531527E-1,5.887591261E0,5.921143168E0
4.594014042E0,7.575250603E-1,-2.850504474E-1,6.885532048E0,6.932939461E0
4.604039750E0,9.542213018E-1,-4.208352202E-1,7.659449632E0,7.730123494E0
4.614065750E0,1.171934483E0,-6.516051608E-1,8.334283222E0,8.441462938E0
4.624091750E0,1.149761256E0,-8.052760546E-1,8.914507694E0,9.024348613E0
4.634118750E0,1.138397631E0,-7.123834591E-1,9.113131177E0,9.211547059E0
4.644144750E0,1.205139797E0,-4.834304678E-1,8.991220239E0,9.084498244E0
4.654170750E0,1.247259631E0,-2.087954829E-1,8.527093989E0,8.620358695E0
4.664196750E0,1.218468379E0,1.083818697E-1,7.713340495E0,7.809739650E0
4.674223750E0,1.073198107E0,3.993300016E-1,6.784296280E0,6.880253967E0
4.684249750E0,8.627750883E-1,6.284343262E-1,5.906240956E0,6.001915759E0
4.694275750E0,6.071172783E-1,7.637669630E-1,4.940738767E0,5.036152393E0
4.704301750E0,4.104508576E-1,8.173058237E-1,3.884110061E0,3.990334533E0
4.714328750E0,1.380822169E-1,8.040767907E-1,2.746998525E0,2.865590180E0
4.724354750E0,-2.727063174E-1,7.525702760E-1,1.566228168E0,1.758920530E0
4.734380750E0,-5.837294389E-1,7.710653845E-1,3.684044069E-1,1.034893082E0
4.744407750E0,-8.099690299E-1,8.663518301E-1,-7.722879642E-1,1.415289378E0
4.754433750E0,-8.816393754E-1,9.881189266E-1,-1.764187993E0,2.205907132E0
4.764459750E0,-8.095458376E-1,1.098406989E0,-2.582666037E0,2.920963238E0
4.774485750E0,-8.215976069E-1,1.149922347E0,-3.115747333E0,3.421290030E0
4.784512750E0,-7.871934671E-1,1.182776244E0,-3.414868081E0,3.698642617E0
4.794538750E0,-6.492064136E-1,1.238132419E0,-3.733306276E0,3.986479224E0
4.804564750E0,-5.749646088E-1,1.232376128E0,-4.118480498E0,4.337189969E0
4.814590750E0,-6.600429853E-1,1.139655075E0,-4.553859497E0,4.740475372E0
4.824616750E0,-7.226603061E-1,9.432394999E-1,-4.967551759E0,5.107691176E0
4.834643750E0,-7.338127736E-1,7.418692866E-1,-5.267142039E0,5.369509892E0
4.844669750E0,-6.835342473E-1,6.053339871E-1,-5.432266240E0,5.508463016E0
4.854695750E0,-6.116555216E-1,5.275469424E-1,-5.431573929E0,5.491304363E0
4.864722750E0,-5.950177080E-1,5.136552737E-1,-5.454428941E0,5.510778791E0
4.874748750E0,-5.370273621E-1,5.295489194E-1,-5.495181695E0,5.546696522E0
4.884774750E0,-5.149862096E-1,5.489832735E-1,-5.513341978E0,5.564488583E0
4.894800750E0,-5.510121477E-1,5.041168204E-1,-5.600052093E0,5.649631103E0
4.904827750E0,-6.355448328E-1,3.451537579E-1,-5.773185225E0,5.818308688E0
4.914853750E0,-7.707155748E-1,1.696332444E-1,-5.839085684E0,5.892172737E0
4.924879750E0,-9.581091155E-1,3.873338174E-2,-5.708615592E0,5.788589234E0
4.934905750E0,-1.108201586E0,-3.102360863E-2,-5.449497984E0,5.561124122E0
4.944932750E0,-1.171641684E0,-6.233225076E-2,-5.063503983E0,5.197663141E0
4.954958750E0,-1.073226905E0,-7.109603930E-2,-4.572019780E0,4.696832497E0
4.964984750E0,-9.427772775E-1,-3.165209295E-2,-4.053341346E0,4.161659154E0
4.975010750E0,-7.536422168E-1,-2.277804784E-2,-3.379865479E0,3.462944713E0
4.985037750E0,-6.157334429E-1,-8.415108114E-2,-2.537830172E0,2.612812864E0
4.995063750E0,-6.310268354E-1,-1.418927925E-1,-1.741432968E0,1.857664452E0
5.005089750E0,-6.534045683E-1,-2.070677037E-1,-1.084142779E0,1.282645754E0
5.015115750E0,-6.104778193E-1,-3.331754077E-1,-5.033096123E-1,8.584926243E-1
5.025142750E0,-5.846021359E-1,-4.637776105E-1,-6.821361780E-3,7.462545546E-1
5.035168750E0,-5.220499384E-1,-4.839118763E-1,-5.482349396E-3,7.118545487E-1
5.045194750E0,-4.357589225E-1,-4.168777516E-1,-2.847950703E-1,6.669191333E-1
5.055220750E0,-3.872629930E-1,-3.306394337E-1,-6.437901378E-1,8.208293381E-1
5.065247750E0,-3.015210307E-1,-2.598338548E-1,-1.036202043E0,1.110019476E0
5.075273750E0,-2.430358641E-1,-1.693703024E-1,-1.436929273E0,1.467146368E0
5.085299750E0,-3.765440235E-1,-8.410649613E-2,-1.885304294E0,1.924378234E0
5.095325750E0,-5.001424679E-1,-6.116816148E-2,-2.335898919E0,2.389625031E0
5.105352750E0,-4.347874077E-1,-1.373325308E-1,-2.759133251E0,2.796554418E0
5.115378750E0,-3.970483084E-1,-2.371402627E-1,-3.076040061E0,3.110611727E0
5.125404750E0,-3.745678107E-1,-3.020114659E-1,-3.195429679E0,3.231452120E0
5.135430750E0,-2.438144208E-1,-3.103431635E-1,-3.161691830E0,3.186228739E0
5.145457750E0,-4.658184350E-2,-3.466900407E-1,-2.790356798E0,2.812197524E0
5.155483750E0,1.700247520E-1,-3.337050923E-1,-2.254910304E0,2.285801388E0
5.165509750E0,3.377338605E-1,-3.162499842E-1,-1.864871199E0,1.921411669E0
5.175535750E0,4.686859095E-1,-2.551151518E-1,-1.546634733E0,1.636101837E0
5.185562750E0,5.633592014E-1,-1.818473835E-1,-1.246533991E0,1.379959801E0
5.195588750E0,6.154980925E-1,-1.367752911E-1,-7.909417516E-1,1.011500982E0
5.205614750E0,5.781054407E-1,-9.182028919E-2,-2.452404106E-1,6.346492930E-1
5.215640750E0,5.380331562E-1,-1.253929549E-1,5.555199856E-1,7.834574173E-1
5.225667750E0,4.264989795E-1,-2.585637300E-1,1.842568164E0,1.908877687E0
5.235693750E0,2.908671114E-1,-3.849996820E-1,3.271547563E0,3.306939958E0
5.245719750E0,3.181073888E-1,-4.783457290E-1,4.340731410E0,4.378579236E0
5.255745750E0,4.757391134E-1,-5.112757858E-1,4.760240482E0,4.811197365E0
5.265772750E0,5.813680409E-1,-5.863355429E-1,4.545473421E0,4.619860040E0
5.275798750E0,7.672661562E-1,-6.694742518E-1,4.280501581E0,4.399953058E0
5.285824750E0,8.842682835E-1,-6.913761675E-1,4.371516416E0,4.513323296E0
5.295850750E0,1.054909844E0,-6.813911697E-1,4.818659429E0,4.979619202E0
5.305877750E0,1.200792392E0,-6.372898612E-1,5.626699609E0,5.788591299E0
5.315903750E0,1.153563408E0,-6.317137371E-1,6.610248059E0,6.739818261E0
5.325929750E0,9.205929413E-1,-7.144393402E-1,7.590883427E0,7.679806386E0
5.335955750E0,6.609666261E-1,-7.780292722E-1,8.543036422E0,8.603817626E0
5.345982750E0,5.688806541E-1,-8.251890399E-1,9.194258371E0,9.248726893E0
5.356008750E0,6.416982233E-1,-8.268622206E-1,9.451538199E0,9.509313964E0
5.366034750E0,8.540050688E-1,-7.335126653E-1,9.609178548E0,9.674899372E0
5.376061750E0,1.240736477E0,-4.472571067E-1,9.755330288E0,9.844081214E0
5.386087750E0,1.561663539E0,-1.198227511E-1,9.430704569E0,9.559881755E0
5.396113750E0,1.741782778E0,1.432463316E-1,8.594771417E0,8.770656900E0
5.406139750E0,1.809149134E0,5.283260474E-1,7.480059979E0,7.713847697E0
5.416166750E0,1.752550426E0,9.197599324E-1,6.305060239E0,6.608417053E0
5.426192750E0,1.599985898E0,1.166324591E0,5.283567452E0,5.642371217E0
5.436218750E0,1.366769702E0,1.189152633E0,4.473554422E0,4.826472063E0
5.446244750E0,1.217857857E0,1.133389053E0,3.636317341E0,3.998818864E0
5.456271750E0,1.107584705E0,1.172115966E0,2.508975917E0,2.982542518E0
5.466297750E0,7.779841755E-1,1.284382433E0,1.200937988E0,1.922797354E0
5.476323750E0,1.724176519E-1,1.321458166E0,3.636558831E-2,1.333154900E0
5.486349750E0,-3.862265740E-1,1.178561352E0,-8.844147563E-1,1.523275184E0
5.496376750E0,-7.929631341E-1,8.716116929E-1,-1.583808407E0,1.974068526E0
5.506402750E0,-9.791606268E-1,7.066632742E-1,-2.230742007E0,2.536599775E0
5.516428750E0,-1.102428411E0,7.186830300E-1,-2.846716940E0,3.136184152E0
5.526454750E0,-1.098031817E0,8.318865868E-1,-3.482542001E0,3.745104532E0
5.536481750E0,-9.660956081E-1,9.293408876E-1,-4.104390462E0,4.317758246E0
5.546507750E0,-8.261888406E-1,1.058143208E0,-4.583897229E0,4.776438930E0
5.556533750E0,-7.516285819E-1,1.168722754E0,-4.942871831E0,5.134475663E0
5.566559750E0,-7.813610157E-1,1.164627364E0,-5.364350245E0,5.544649266E0
5.576586750E0,-7.926167596E-1,1.209244908E0,-5.735947816E0,5.915370819E0
5.586612750E0,-7.764125171E-1,1.276939805E0,-5.859424639E0,6.047003287E0
5.596638750E0,-8.346314891E-1,1.141046274E0,-5.903794481E0,6.070698938E0
5.606664750E0,-1.025224845E0,7.363730501E-1,-5.970358599E0,6.102336688E0
5.616691750E0,-1.207587807E0,3.487592972E-1,-5.957193593E0,6.088354200E0
5.626717750E0,-1.232222492E0,7.895667057E-2,-5.823119861E0,5.952590306E0
5.636743750E0,-1.117135255E0,-1.052721377E-1,-5.675793416E0,5.785646403E0
5.646769750E0,-9.909092179E-1,-1.291303856E-1,-5.405132235E0,5.496729047E0
5.656796750E0,-9.028639642E-1,-3.994788498E-2,-5.037111990E0,5.117543979E0
5.666822750E0,-9.002572024E-1,-8.568582907E-3,-4.695974320E0,4.781496760E0
5.676848750E0,-9.096563823E-1,-3.142914958E-2,-4.193597923E0,4.291238290E0
5.686874750E0,-8.685674863E-1,-1.649533888E-1,-3.367727244E0,3.481839440E0
5.696901750E0,-7.228438356E-1,-3.711852330E-1,-2.436068739E0,2.568017249E0
5.706927750E0,-5.614801987E-1,-6.218365473E-1,-1.579485560E0,1.787936056E0
5.716953750E0,-3.524185579E-1,-8.701426531E-1,-8.610791034E-1,1.273893362E0
5.726979750E0,-1.162588732E-1,-1.078216407E0,-2.789513630E-1,1.119768105E0
5.737006750E0,3.441510335E-2,-1.158489907E0,2.205534661E-1,1.179799600E0
5.747032750E0,1.874207302E-1,-1.074547352E0,8.444700873E-1,1.379459412E0
5.757058750E0,3.456482130E-1,-8.427352915E-1,1.609772383E0,1.849606062E0
5.767084750E0,4.722014017E-1,-5.953117499E-1,2.235543156E0,2.361148756E0
5.777111750E0,5.586026376E-1,-3.538233514E-1,2.368731619E0,2.459292043E0
5.787137750E0,6.721770541E-1,-1.402856670E-1,1.867208331E0,1.989464504E0
5.797163750E0,5.867072066E-1,-1.846309505E-2,8.957127464E-1,1.070919024E0
5.807189750E0,3.380365270E-1,-7.907847539E-3,-2.525289649E-1,4.220214517E-1
5.817216750E0,4.161412217E-2,6.998715140E-2,-1.414388841E0,1.416730649E0
5.827242750E0,-8.801828340E-2,9.768716611E-2,-2.556677502E0,2.560056611E0
5.837268750E0,-1.992104711E-1,1.534046263E-2,-3.622963470E0,3.628468609E0
5.847294750E0,-3.110036796E-1,-1.749980282E-1,-4.350547716E0,4.365158992E0
5.857321750E0,-3.190082254E-1,-3.794899238E-1,-4.778402519E0,4.804051361E0
5.867347750E0,-2.481472442E-1,-5.972968065E-1,-5.012919136E0,5.054473147E0
5.877373750E0,-1.407061549E-1,-7.522323800E-1,-4.857286136E0,4.917202495E0
5.887399750E0,-8.798356555E-2,-6.965287339E-1,-4.269262648E0,4.326603395E0
5.897426750E0,-1.578067026E-1,-6.356820962E-1,-3.586868607E0,3.646178971E0
5.907452750E0,-1.356869781E-1,-6.494525814E-1,-2.948649112E0,3.022371783E0
5.917478750E0,-1.578056793E-1,-6.626103515E-1,-2.340964946E0,2.438046757E0
5.927504750E0,-3.292814179E-1,-6.601149791E-1,-1.831185974E0,1.974188469E0
5.937531750E0,-4.872958428E-1,-6.265324462E-1,-1.521338509E0,1.715946096E0
5.947557750E0,-5.820668563E-1,-5.910092224E-1,-1.350539001E0,1.584944579E0
5.957583750E0,-6.935476041E-1,-4.442530265E-1,-1.263937059E0,1.508610593E0
5.967609750E0,-6.405616707E-1,-2.181775962E-1,-1.341923128E0,1.502890016E0
5.977636750E0,-4.758902639E-1,-3.791692771E-2,-1.634055285E0,1.702364800E0
5.987662750E0,-2.627610075E-1,5.252926581E-2,-1.981983327E0,2.000015145E0
5.997688750E0,-5.821765646E-2,1.215631018E-1,-2.259339570E0,2.263356396E0
6.007715750E0,6.846519426E-2,2.368940219E-1,-2.274807209E0,2.288133322E0
6.017741750E0,5.192451753E-2,2.920077570E-1,-2.167366961E0,2.187565822E0
6.027767750E0,-6.177985333E-2,1.957565209E-1,-1.787845827E0,1.799591639E0
6.037793750E0,-2.102970113E-1,-1.994236752E-2,-9.112651706E-1,9.354286408E-1
6.047820750E0,-2.636955388E-1,-1.622381611E-1,3.660731220E-1,4.794435199E-1
6.057846750E0,6.339200377E-2,-2.675120164E-1,2.067538033E0,2.085736019E0
6.067872750E0,5.720835395E-1,-4.797114924E-1,3.991457339E0,4.060681517E0
6.077898750E0,8.926410578E-1,-6.303726051E-1,5.680401607E0,5.784560492E0
6.087925750E0,1.092872380E0,-5.666907987E-1,6.812528391E0,6.922864406E0
6.097951750E0,1.092583235E0,-2.428165935E-1,7.473319893E0,7.556666478E0
6.107977750E0,9.949604613E-1,1.253194993E-1,7.627347248E0,7.692988843E0
6.118003750E0,9.748227967E-1,3.549155382E-1,7.337370375E0,7.410347397E0
6.128030750E0,1.041561308E0,5.289977463E-1,6.795413007E0,6.895094380E0
6.138056750E0,1.112764096E0,6.384223207E-1,6.206555706E0,6.337756758E0
6.148082750E0,1.160833105E0,7.393004586E-1,5.767940272E0,5.929859497E0
6.158108750E0,1.189110898E0,7.196480399E-1,5.601041442E0,5.770922219E0
6.168135750E0,1.324408817E0,5.606697015E-1,5.786584704E0,5.962631279E0
6.178161750E0,1.550416127E0,4.424832936E-1,6.438617077E0,6.637422052E0
6.188187750E0,1.535072303E0,5.097736361E-1,7.160511982E0,7.340929640E0
6.198213750E0,1.539643802E0,4.963682364E-1,7.881476011E0,8.045778308E0
6.208240750E0,1.691069438E0,3.384239050E-1,9.257091381E0,9.416368059E0
6.218266750E0,1.732493745E0,1.530600060E-1,1.066833617E1,1.080917937E1
6.228292750E0,1.622452655E0,2.429145344E-2,1.117824262E1,1.129539954E1
6.238318750E0,1.501391902E0,2.625020490E-1,1.048578376E1,1.059597783E1
6.248345750E0,1.334813645E0,6.895298360E-1,8.689599806E0,8.818521625E0
6.258371750E0,1.084684816E0,7.048273947E-1,6.537237386E0,6.663992455E0
6.268397750E0,8.847041935E-1,8.365319073E-1,4.549469993E0,4.709582185E0
6.278423750E0,6.202542908E-1,9.674354976E-1,2.601338536E0,2.843872185E0
6.288450750E0,4.743898684E-1,9.488647407E-1,1.033430462E0,1.481002554E0
6.298476750E0,4.092019654E-1,8.492504054E-1,-1.709146982E-1,9.580628025E-1
6.308502750E0,3.171622594E-1,8.513056286E-1,-1.092706611E0,1.421028117E0
6.318528750E0,1.998921103E-1,9.560535268E-1,-1.635456278E0,1.904917961E0
6.328555750E0,1.516422024E-1,1.157877630E0,-1.956183658E0,2.278229678E0
6.338581750E0,1.982450227E-1,1.464820199E0,-2.237363979E0,2.681566125E0
6.348607750E0,1.831879308E-1,1.727975017E0,-2.719997837E0,3.227668463E0
6.358633750E0,5.172775872E-2,1.824929454E0,-3.486794681E0,3.935832875E0
6.368660750E0,-1.122266333E-1,1.692584598E0,-4.324953868E0,4.645714520E0
6.378686750E0,-2.040763778E-1,1.395617817E0,-5.089612970E0,5.281435075E0
6.388712750E0,-2.820892347E-1,1.074217642E0,-5.622257479E0,5.730907174E0
6.398738750E0,-3.350586862E-1,8.397769658E-1,-5.930151390E0,5.998681954E0
6.408765750E0,-2.264366787E-1,7.287990785E-1,-6.137313563E0,6.184580781E0
6.418791750E0,-1.248847223E-1,6.769691397E-1,-6.284587968E0,6.322177579E0
6.428817750E0,-1.176828895E-1,6.574537651E-1,-6.370399951E0,6.405317342E0
6.438843750E0,-1.271470466E-1,6.094200214E-1,-6.549714174E0,6.579233610E0
6.448870750E0,-6.683118984E-2,4.775959333E-1,-6.798582782E0,6.815665201E0
6.458896750E0,-1.681825867E-1,3.015721207E-1,-6.985522944E0,6.994051897E0
6.468922750E0,-3.888073523E-1,1.086586623E-1,-6.991992888E0,7.003637799E0
6.478948750E0,-5.718451193E-1,-3.581591349E-2,-6.764478897E0,6.788701228E0
6.488975750E0,-7.341652876E-1,-1.930670940E-1,-6.325826041E0,6.371212496E0
6.499001750E0,-9.737431815E-1,-3.393404561E-1,-5.680238469E0,5.773078624E0
6.509027750E0,-1.103430478E0,-5.268073062E-1,-4.767136104E0,4.921450130E0
6.519053750E0,-1.149906706E0,-7.700652914E-1,-3.764134551E0,4.010485620E0
6.529080750E0,-1.241660044E0,-9.711046985E-1,-2.669514731E0,3.100173044E0
6.539106750E0,-1.319659855E0,-1.141460037E0,-1.434835970E0,2.259023552E0
6.549132750E0,-1.370632372E0,-1.291986591E0,-3.022466701E-1,1.907672797E0
6.559158750E0,-1.233576561E0,-1.378448784E0,5.597750044E-1,1.932661439E0
6.569185750E0,-9.641726051E-1,-1.274859950E0,9.780713636E-1,1.873905093E0
6.579211750E0,-5.956248683E-1,-1.071074764E0,9.571593815E-1,1.555031902E0
6.589237750E0,-2.017160030E-1,-9.258639870E-1,5.090287739E-1,1.075650390E0
6.599264000E0,1.390505158E-1,-8.516957840E-1,-2.173240489E-1,8.899160054E-1
6.609291000E0,3.261638287E-1,-8.391660780E-1,-8.361436522E-1,1.228706131E0
6.619317000E0,2.771023272E-1,-8.307126121E-1,-1.378917877E0,1.633488186E0
6.629343000E0,7.833368629E-2,-8.006669138E-1,-1.872892994E0,2.038364992E0
6.639370000E0,-1.670614562E-1,-8.121604201E-1,-2.268490462E0,2.415277014E0
6.649396000E0,-4.673017274E-1,-7.864385916E-1,-2.552825357E0,2.711784258E0
6.659422000E0,-7.178784531E-1,-7.845703331E-1,-2.783483396E0,2.979711378E0
6.669448000E0,-8.442277933E-1,-8.145676457E-1,-3.036995863E0,3.255700368E0
6.679474000E0,-8.726704044E-1,-8.137590489E-1,-3.289000332E0,3.498754151E0
6.689501000E0,-7.309059034E-1,-7.722136315E-1,-3.517948646E0,3.675119047E0
6.699527000E0,-5.019288654E-1,-7.459940587E-1,-3.562483379E0,3.674197538E0
6.709553000E0,-2.350251786E-1,-7.298791324E-1,-3.479606114E0,3.563091227E0
6.719579000E0,-1.316806121E-1,-7.822706962E-1,-3.370065545E0,3.462171141E0
6.729606000E0,-1.204881643E-1,-8.663644747E-1,-3.202955046E0,3.320244844E0
6.739632000E0,-4.703207910E-2,-9.033821737E-1,-2.893083606E0,3.031211659E0
6.749658000E0,1.044886474E-1,-8.634523420E-1,-2.330279744E0,2.487302055E0
6.759685000E0,2.708775276E-1,-7.266466454E-1,-1.632435606E0,1.807273081E0
6.769711000E0,4.386215732E-1,-4.595578942E-1,-6.976856786E-1,9.435823487E-1
6.779737000E0,6.347826482E-1,-1.378848734E-1,4.455367827E-1,7.876955463E-1
6.789763000E0,7.271290407E-1,8.262839310E-2,1.345754224E0,1.531861131E0
6.799789000E0,7.323935813E-1,2.128388690E-1,1.597504340E0,1.770231866E0
6.809816000E0,6.882484918E-1,2.340796839E-1,1.354342614E0,1.537115221E0
6.819842000E0,5.871719871E-1,3.365461448E-1,1.023262154E0,1.226825043E0
6.829868000E0,3.135532118E-1,3.850454365E-1,7.102554381E-1,8.666247124E-1
6.839895000E0,1.424974494E-1,2.015494305E-1,6.516271609E-1,6.968110597E-1
6.849921000E0,7.342144042E-2,-1.212523954E-1,6.294656289E-1,6.452285093E-1
6.859947000E0,-3.667651400E-2,-4.850006644E-1,4.787401968E-1,6.824683049E-1
6.869973000E0,1.102893776E-1,-7.636685105E-1,8.074595511E-1,1.116845678E0
6.880000000E0,5.345455845E-1,-7.986809801E-1,2.029792501E0,2.245815640E0
6.890026000E0,8.539107093E-1,-6.990171627E-1,3.887397366E0,4.040995765E0
6.900052000E0,1.229222871E0,-5.664677274E-1,5.848043618E0,6.002623486E0
6.910078000E0,1.780232168E0,-5.168777107E-1,7.735031911E0,7.954062346E0
6.920105000E0,2.057173697E0,-5.193350031E-1,9.724655795E0,9.953421662E0
6.930131000E0,2.091266326E0,-3.245940705E-1,1.134288968E1,1.153862654E1
6.940157000E0,2.183211453E0,-7.248793244E-3,1.216384344E1,1.235821799E1
6.950183000E0,2.163293644E0,4.091957527E-1,1.230373924E1,1.249917117E1
6.960210000E0,2.000799667E0,8.943394547E-1,1.200570432E1,1.220409680E1
6.970236000E0,1.732866067E0,1.227054869E0,1.139861833E1,1.159469656E1
6.980262000E0,1.294889587E0,1.488934117E0,1.057629866E1,1.075879906E1
6.990288000E0,6.792228759E-1,1.551296426E0,9.549792472E0,9.698783458E0
7.000315000E0,1.220150185E-1,1.437884123E0,8.497887146E0,8.619540845E0
7.010341000E0,-2.157343371E-1,1.172872888E0,7.419543051E0,7.514771534E0
7.020367000E0,-4.922688266E-1,9.170650969E-1,6.325588644E0,6.410648071E0
7.030393000E0,-7.111297430E-1,7.194196330E-1,5.148390936E0,5.246827551E0
7.040420000E0,-7.834070295E-1,5.729017112E-1,3.822766337E0,3.944044296E0
7.050446000E0,-5.792189699E-1,4.807020108E-1,2.302554002E0,2.422462377E0
7.060472000E0,-1.843019716E-1,4.979415759E-1,9.000338387E-1,1.044975569E0
7.070498000E0,1.039883450E-2,3.188663574E-1,-1.926938224E-1,3.727127564E-1
7.080525000E0,1.298749188E-1,-1.555086006E-1,-9.377898949E-1,9.594270720E-1
7.090551000E0,2.784486486E-1,-2.670006774E-1,-1.821931002E0,1.862325317E0
7.100577000E0,2.327410369E-1,-1.073814842E-1,-2.539211285E0,2.552115421E0
7.110603000E0,1.855303985E-1,2.624526766E-1,-3.202228237E0,3.218317669E0
7.120630000E0,1.968473920E-1,6.024776223E-1,-3.737636724E0,3.790996764E0
7.130656000E0,1.329557437E-1,7.261385954E-1,-4.187498692E0,4.252070059E0
7.140682000E0,3.096553847E-2,6.721234059E-1,-4.433198109E0,4.483966348E0
7.150708000E0,-1.204530810E-1,6.681985355E-1,-4.601918932E0,4.651736889E0
7.160735000E0,-3.285005222E-1,5.740914368E-1,-4.723285494E0,4.769373065E0
7.170761000E0,-4.191960995E-1,4.976667203E-1,-4.716416185E0,4.761090124E0
7.180787000E0,-3.709950158E-1,5.833520377E-1,-4.674372951E0,4.725219507E0
7.190813000E0,-3.488261747E-1,7.642352519E-1,-4.692015170E0,4.766627904E0
7.200840000E0,-3.627960500E-1,8.536107472E-1,-4.716906767E0,4.807232232E0
7.210866000E0,-4.549839829E-1,8.186062445E-1,-4.704884307E0,4.797193237E0
7.220892000E0,-7.670506132E-1,7.178812306E-1,-4.447723762E0,4.570116713E0
7.230918000E0,-9.656510004E-1,6.046987237E-1,-4.266481712E0,4.415994633E0
7.240945000E0,-1.106582492E0,5.031512989E-1,-4.418173104E0,4.582350883E0
7.250971000E0,-1.223624600E0,4.399108111E-1,-4.857884890E0,5.028898915E0
7.260997000E0,-1.198788552E0,3.988952611E-1,-5.405392436E0,5.551079067E0
7.271023000E0,-9.615300290E-1,3.958321606E-1,-5.867833520E0,5.959252748E0
7.281050000E0,-5.905404219E-1,5.179777913E-1,-6.010227839E0,6.061342892E0
7.291076000E0,-2.755341040E-1,6.550036356E-1,-5.831414137E0,5.874550165E0
7.301102000E0,-5.442544475E-2,6.298951799E-1,-5.428134597E0,5.464830763E0
7.311128000E0,1.803421640E-1,4.146505837E-1,-4.858655553E0,4.879650827E0
7.321155000E0,1.940755194E-1,1.397601485E-1,-4.066606924E0,4.073633523E0
7.331181000E0,4.531489804E-2,-2.514711305E-1,-2.892744468E0,2.904007873E0
7.341207000E0,-9.591407105E-2,-6.584711076E-1,-1.404909920E0,1.554527450E0
7.351233000E0,-1.540634613E-1,-9.738328631E-1,1.145305824E-1,9.925740525E-1
7.361260000E0,1.342564568E-2,-1.153458963E0,1.513371677E0,1.902877206E0
7.371286000E0,1.678023715E-1,-1.087427014E0,2.489243318E0,2.721578117E0
7.381312000E0,-4.771868840E-2,-7.828841422E-1,3.010627844E0,3.111119520E0
7.391338000E0,-3.407934161E-1,-3.246123065E-1,3.030482649E0,3.066812415E0
7.401365000E0,-7.602792451E-1,2.301295973E-1,2.250728375E0,2.386789136E0
7.411391000E0,-1.055341295E0,5.709773925E-1,9.301113313E-1,1.518179015E0
7.421417000E0,-1.122492766E0,6.512193907E-1,-6.939615870E-1,1.471617949E0
7.431443000E0,-1.189064924E0,7.294218801E-1,-2.348434179E0,2.731496800E0
7.441470000E0,-1.091902619E0,8.036202693E-1,-3.869534706E0,4.100165327E0
7.451496000E0,-9.006270388E-1,7.781386882E-1,-5.242947430E0,5.376348820E0
7.461522000E0,-6.144691287E-1,6.402199741E-1,-6.376027311E0,6.437482287E0
7.471548000E0,-3.269053287E-1,4.216395413E-1,-7.250490691E0,7.270093690E0
7.481575000E0,-8.509635665E-2,1.156274470E-1,-7.911955208E0,7.913257629E0
7.491601000E0,1.036912333E-1,-2.029775764E-1,-8.279407103E0,8.282543918E0
7.501627000E0,-3.070884570E-3,-2.678829492E-1,-8.062585330E0,8.067034951E0
7.511653000E0,5.074025901E-1,-3.485872429E-1,-7.296900042E0,7.322821906E0
7.521680000E0,4.308607831E-1,-5.311745185E-1,-5.961867857E0,6.000971232E0
7.531706000E0,1.124309935E-2,-5.799760381E-1,-4.097452741E0,4.138310957E0
7.541732000E0,5.144321859E-2,-8.490869026E-1,-1.899254581E0,2.081048519E0
7.551758000E0,8.477424815E-2,-1.289576223E0,5.491371650E-1,1.404188425E0
7.561785000E0,1.486587337E-1,-1.665847473E0,2.830886773E0,3.288018727E0
7.571811000E0,3.668336986E-1,-1.801436218E0,4.824927644E0,5.163299931E0
7.581837000E0,5.285723613E-1,-1.529567003E0,6.169804786E0,6.378515113E0
7.591863000E0,6.581451984E-1,-1.103664586E0,6.974831895E0,7.092214787E0
7.601889667E0,6.107184322E-1,-6.485170269E-1,7.596886178E0,7.648936589E0
7.611915667E0,2.861177105E-1,-3.087997178E-1,7.786572778E0,7.797944359E0
7.621941667E0,-2.107360641E-1,-2.494225585E-1,7.295706625E0,7.303010096E0
7.631967667E0,-7.052602348E-1,-4.286230537E-1,6.514197602E0,6.566268355E0
7.641994667E0,-9.420496646E-1,-5.622064228E-1,6.010665210E0,6.109961531E0
7.652020667E0,-8.796846512E-1,-6.725599006E-1,6.180662481E0,6.279074024E0
7.662046667E0,-3.682172960E-1,-7.731074515E-1,7.323535863E0,7.373429097E0
7.672072667E0,2.955350898E-1,-7.093361096E-1,8.714729385E0,8.748543133E0
7.682099667E0,1.002002263E0,-6.733688629E-1,1.024600348E1,1.031688042E1
7.692125667E0,1.722420601E0,-6.710495648E-1,1.214640470E1,1.228626011E1
7.702151667E0,2.223980287E0,-5.807355183E-1,1.357141092E1,1.376468439E1
7.712177667E0,2.336461713E0,-3.140877204E-1,1.376538294E1,1.396579650E1
7.722204667E0,2.255699824E0,2.517597637E-1,1.261756398E1,1.282008134E1
7.732230667E0,2.113553866E0,8.962905975E-1,1.073865011E1,1.098130470E1
7.742256667E0,1.979760947E0,1.372204689E0,8.485618519E0,8.820891154E0
7.752282667E0,1.700096516E0,1.700890422E0,6.201756311E0,6.651701867E0
7.762309667E0,1.350962778E0,1.926283043E0,4.213804731E0,4.826159664E0
7.772335667E0,9.300481083E-1,2.018140609E0,2.611383467E0,3.428878040E0
7.782361667E0,4.820502325E-1,1.933926816E0,1.354337937E0,2.409704671E0
7.792387667E0,1.663830330E-1,1.806679709E0,4.285190463E-1,1.864243401E0
7.802414667E0,-8.145573400E-2,1.686505248E0,-2.869556165E-1,1.712681673E0
7.812440667E0,-3.194659162E-1,1.504683592E0,-7.773247558E-1,1.723474676E0
7.822466667E0,-5.048576626E-1,1.288112372E0,-1.100106263E0,1.767582680E0
7.832492667E0,-5.816550661E-1,1.156029983E0,-1.425381607E0,1.925211849E0
7.842519667E0,-5.791615210E-1,9.460300836E-1,-1.733114719E0,2.057689874E0
7.852545667E0,-5.724337877E-1,8.072725864E-1,-2.054720351E0,2.280623860E0
7.862571667E0,-6.143852942E-1,7.511877018E-1,-2.456494233E0,2.641233835E0
7.872597667E0,-5.303564199E-1,6.925211985E-1,-3.052727796E0,3.174903233E0
7.882624667E0,-3.229716144E-1,5.743387740E-1,-3.831783328E0,3.888025098E0
7.892650667E0,-1.086685295E-1,4.230648732E-1,-4.659995817E0,4.680422390E0
7.902676667E0,2.873577587E-2,3.864378412E-1,-5.381210107E0,5.395144313E0
7.912702667E0,1.567698450E-1,4.031474660E-1,-5.855273116E0,5.871228826E0
7.922729667E0,3.979980424E-1,3.952176914E-1,-6.171986967E0,6.197420639E0
7.932755667E0,5.245623408E-1,4.292889419E-1,-6.356000597E0,6.392041790E0
7.942781667E0,6.114381514E-1,4.150831680E-1,-6.414520116E0,6.456951214E0
7.952807667E0,6.706384324E-1,3.060841612E-1,-6.308944545E0,6.351867811E0
7.962834667E0,6.400109361E-1,1.812206534E-1,-6.127500765E0,6.163499051E0
7.972860667E0,4.742330168E-1,-1.871633431E-2,-6.044039948E0,6.062645145E0
7.982886667E0,2.173738233E-1,-2.544929350E-1,-6.046773521E0,6.056029066E0
7.992912667E0,2.735671006E-2,-4.148795753E-1,-6.029089787E0,6.043409395E0
8.002939667E0,-1.110874495E-1,-5.657150811E-1,-5.927323676E0,5.955295118E0
8.012965667E0,-2.390265745E-1,-7.111207529E-1,-5.867437663E0,5.915205082E0
8.022991667E0,-3.759372286E-1,-7.890365826E-1,-5.879884631E0,5.944489112E0
8.033017667E0,-4.715711450E-1,-7.709732178E-1,-5.939771229E0,6.008132930E0
8.043044667E0,-5.431162870E-1,-6.747596962E-1,-5.917113268E0,5.980176032E0
8.053070667E0,-5.868953408E-1,-5.434815187E-1,-5.645242884E0,5.701630075E0
8.063096667E0,-5.901277547E-1,-4.881273899E-1,-5.255724766E0,5.311229794E0
8.073123667E0,-5.345988672E-1,-4.332330716E-1,-4.918173192E0,4.966076358E0
8.083149667E0,-4.811995357E-1,-3.594644527E-1,-4.550979744E0,4.590444893E0
8.093175667E0,-4.227000435E-1,-3.396714085E-1,-3.964150842E0,4.001067844E0
8.103201667E0,-3.509082220E-1,-4.199316792E-1,-3.476428152E0,3.519237402E0
8.113228667E0,-2.433941522E-1,-5.584852548E-1,-3.274033214E0,3.330231221E0
8.123254667E0,-1.969492798E-1,-6.627098273E-1,-3.131251810E0,3.206666685E0
8.133280667E0,-2.027092257E-1,-7.592692848E-1,-2.889220351E0,2.994190227E0
8.143306667E0,-2.212793979E-1,-7.672535846E-1,-2.419198937E0,2.547580447E0
8.153332667E0,-2.693192446E-1,-6.472350980E-1,-1.847675123E0,1.976195711E0
8.163359667E0,-1.724969548E-1,-4.343626074E-1,-1.357200733E0,1.435416283E0
8.173385667E0,-1.645918116E-1,-1.618192081E-1,-1.053185281E0,1.078181411E0
8.183411667E0,-2.414585777E-1,-3.311351314E-3,-9.161563665E-1,9.474469366E-1
8.193437667E0,-1.597127487E-1,-8.219262935E-2,-8.079746908E-1,8.276997592E-1
8.203464667E0,-1.104655981E-1,-1.005706474E-1,-5.832936752E-1,6.021201001E-1
8.213490667E0,7.128369838E-2,9.061854020E-2,-6.372120202E-2,1.317325968E-1
8.223516667E0,4.012271672E-1,3.289336547E-1,8.382264304E-1,9.858012668E-1
8.233543667E0,5.188113119E-1,4.759503441E-1,2.235458956E0,2.343708739E0
8.243569667E0,4.350318213E-1,3.920785405E-1,3.994034792E0,4.036742769E0
8.253595667E0,3.232248719E-1,9.403477594E-2,5.761811221E0,5.771636284E0
8.263621667E0,-3.320699550E-2,-1.837947987E-1,7.119377405E0,7.121826863E0
8.273648667E0,-3.178068419E-1,-1.333393941E-1,7.927794145E0,7.935282011E0
8.283674667E0,-2.165027343E-1,1.853310084E-1,8.341127388E0,8.345994675E0
8.293700667E0,1.996093243E-3,5.120892066E-1,8.638607993E0,8.653773015E0
8.303726667E0,2.661423793E-1,7.588455078E-1,9.248154497E0,9.283051215E0
8.313752667E0,5.652782576E-1,7.992782000E-1,1.027405608E1,1.032059173E1
8.323779667E0,7.129365326E-1,6.049783668E-1,1.143173228E1,1.146990759E1
8.333805667E0,9.693277296E-1,3.984173609E-1,1.254523744E1,1.258893621E1
8.343831667E0,1.205742791E0,2.823553926E-1,1.332849185E1,1.338589688E1
8.353857667E0,1.576427466E0,3.515992898E-1,1.365864904E1,1.375381544E1
8.363884667E0,1.915688181E0,4.285451395E-1,1.363020233E1,1.377083613E1
8.373910667E0,1.853663549E0,3.668842770E-1,1.338203130E1,1.351478577E1
8.383936667E0,1.553849466E0,2.071942594E-1,1.259652804E1,1.269369514E1
8.393962667E0,1.098723250E0,-2.646720238E-2,1.130564760E1,1.135894189E1
8.403989667E0,5.638126530E-1,-1.934383191E-1,9.658137869E0,9.676514362E0
8.414015667E0,2.042039202E-1,-2.067299905E-1,7.633673936E0,7.639202464E0
8.424041667E0,4.086911380E-2,-1.955617355E-1,5.289764916E0,5.293536393E0
8.434067667E0,8.645444557E-2,-2.726239447E-1,2.738355755E0,2.753250884E0
8.444094667E0,2.135180962E-1,-3.812266930E-1,2.491989756E-1,5.030148092E-1
8.454120667E0,3.531734334E-1,-4.730607963E-1,-1.963852281E0,2.050666665E0
8.464146667E0,5.175388116E-1,-4.644007044E-1,-3.836478642E0,3.898984843E0
8.474172667E0,5.136360144E-1,-3.227965634E-1,-5.384733054E0,5.418797804E0
8.484199667E0,6.276308457E-1,-2.049842311E-1,-6.547716181E0,6.580921379E0
8.494225667E0,8.023088850E-1,-6.433844872E-2,-7.289149557E0,7.333453501E0
8.504251667E0,7.321601312E-1,1.541961931E-1,-7.689361648E0,7.725679095E0
8.514277667E0,4.759330217E-1,2.114492782E-1,-7.899460877E0,7.916609450E0
8.524304667E0,3.030972938E-1,1.930012397E-1,-8.424045584E0,8.431705726E0
8.534330667E0,-2.217930393E-1,2.933700851E-1,-8.635276834E0,8.643105007E0
8.544356667E0,-1.644310132E-2,2.981327885E-1,-8.705067446E0,8.710186724E0
8.554382667E0,1.678449831E-1,1.164163826E-1,-8.753142668E0,8.755525757E0
8.564409667E0,3.279574621E-1,3.170155674E-2,-8.822553211E0,8.828703543E0
8.574435667E0,5.835212781E-1,1.104536113E-1,-8.976392870E0,8.996017232E0
8.584461667E0,7.141675908E-1,3.466159272E-1,-9.075048262E0,9.109702460E0
8.594487667E0,7.556900579E-1,5.496682383E-1,-9.040971859E0,9.089134985E0
8.604515000E0,6.316703946E-1,6.806569786E-1,-8.872048137E0,8.920512292E0
8.614541000E0,4.929089505E-1,8.003707523E-1,-8.527795070E0,8.579442950E0
8.624567000E0,3.923668448E-1,7.085151605E-1,-8.199492622E0,8.239394682E0
8.634593000E0,3.130255006E-1,3.201303061E-1,-8.101952879E0,8.114315056E0
8.644620000E0,1.690232153E-1,-1.397094239E-1,-8.255099643E0,8.258011727E0
8.654646000E0,1.401279475E-1,-3.994428894E-1,-8.466787561E0,8.477362919E0
8.664672000E0,1.723366497E-1,-6.044585493E-1,-8.659597158E0,8.682378303E0
8.674698000E0,2.545654770E-1,-8.152211452E-1,-8.856560617E0,8.897643231E0
8.684725000E0,4.521462560E-1,-1.065370220E0,-9.035673696E0,9.109492252E0
8.694751000E0,5.564819622E-1,-1.227391084E0,-9.061460502E0,9.161125885E0
8.704777000E0,4.531028605E-1,-1.233523059E0,-8.793818239E0,8.891463353E0
8.714804000E0,2.601962360E-1,-1.161512698E0,-8.271771224E0,8.356973915E0
8.724830000E0,3.886684444E-2,-1.170187189E0,-7.381061940E0,7.473347580E0
8.734856000E0,-2.884417229E-1,-1.293039090E0,-6.042796245E0,6.186318386E0
8.744882000E0,-5.816006870E-1,-1.504062325E0,-4.182243800E0,4.482368351E0
8.754908000E0,-7.129393832E-1,-1.740325213E0,-2.246086856E0,2.929491522E0
8.764935000E0,-7.354386650E-1,-1.872003779E0,-4.401801485E-1,2.058889687E0
8.774961000E0,-7.777687056E-1,-1.688745755E0,1.317157831E0,2.278528283E0
8.784987000E0,-7.178752372E-1,-1.173707066E0,3.041771868E0,3.338459111E0
8.795013000E0,-7.511933298E-1,-5.973663153E-1,4.349488201E0,4.454120063E0
8.805040000E0,-6.830625232E-1,-1.248367386E-1,5.276439112E0,5.321932762E0
8.815066000E0,-4.103298202E-1,2.440763761E-1,5.905882521E0,5.925149128E0
8.825092000E0,2.612784460E-2,4.984590545E-1,6.224287387E0,6.244269178E0
8.835119000E0,6.901193085E-1,7.933423260E-1,6.430277193E0,6.515682734E0
8.845145000E0,1.349781640E0,1.338494321E0,6.554293714E0,6.824385951E0
8.855171000E0,1.670661486E0,1.860811916E0,6.762029498E0,7.209630623E0
8.865197000E0,1.897487260E0,2.093008650E0,6.868815444E0,7.427096923E0
8.875223000E0,1.874814097E0,2.118889450E0,6.914857004E0,7.471269490E0
8.885250000E0,1.343269450E0,1.811320644E0,7.025185778E0,7.378244405E0
8.895276000E0,8.235211216E-1,1.099069990E0,7.317799745E0,7.445558071E0
8.905302000E0,3.721308374E-1,4.247817984E-1,8.251676683E0,8.270978722E0
8.915328000E0,-4.172865450E-3,9.565591648E-2,9.551929629E0,9.552409492E0
8.925355000E0,-1.613214639E-1,2.150991833E-1,1.087587959E1,1.087920259E1
8.935381000E0,7.565010667E-2,6.727810715E-1,1.128575537E1,1.130604403E1
8.945407000E0,4.442822626E-1,1.309221113E0,1.073259006E1,1.082127238E1
8.955433000E0,6.409633014E-1,1.966547847E0,9.909645910E0,1.012320238E1
8.965460000E0,6.351322386E-1,2.538355545E0,9.517418777E0,9.870557330E0
8.975486000E0,5.935598510E-1,2.763205837E0,9.567877910E0,9.976567921E0
8.985512000E0,6.199850996E-1,2.606794865E0,9.534224260E0,9.903594965E0
8.995538000E0,7.853121985E-1,2.264694888E0,9.273769979E0,9.578536830E0
9.005565000E0,8.921281108E-1,1.955181153E0,8.933457935E0,9.188323927E0
9.015591000E0,9.423850755E-1,1.762845180E0,8.411349524E0,8.645606606E0
9.025617000E0,9.924600457E-1,1.673163802E0,7.964310007E0,8.198456436E0
9.035643000E0,9.797876675E-1,1.591231008E0,7.510542099E0,7.739524702E0
9.045670000E0,9.764921768E-1,1.600392133E0,6.841438780E0,7.093664535E0
9.055696000E0,1.040010773E0,1.670366348E0,6.192907135E0,6.497987760E0
9.065722000E0,9.609657727E-1,1.617920770E0,5.479408831E0,5.793534670E0
9.075748000E0,7.265764788E-1,1.430023711E0,4.577357703E0,4.850266460E0
9.085775000E0,2.971125224E-1,1.289079502E0,3.418623163E0,3.665649485E0
9.095801000E0,-8.859818101E-2,1.160474086E0,2.195466340E0,2.484878708E0
9.105827000E0,-4.634049967E-1,1.082791999E0,1.116953845E0,1.623197029E0
9.115853000E0,-6.514682628E-1,9.036049526E-1,5.811372221E-2,1.115477482E0
9.125880000E0,-7.675884108E-1,6.849915927E-1,-9.885840726E-1,1.426780964E0
9.135906000E0,-7.466578639E-1,4.499113040E-1,-2.138041420E0,2.308925997E0
9.145932000E0,-5.487419663E-1,1.820524015E-1,-3.476255075E0,3.524004848E0
9.155958000E0,-3.802076695E-1,5.729401566E-2,-4.824644054E0,4.839941190E0
9.165985000E0,-1.843062839E-1,3.393672802E-2,-5.954725483E0,5.957673714E0
9.176011000E0,-8.225292876E-2,4.029952191E-2,-6.868297965E0,6.868908686E0
9.186037000E0,-4.596752040E-2,2.999497376E-2,-7.534420373E0,7.534620301E0
9.196063000E0,-3.135313578E-2,4.949894629E-2,-8.055535927E0,8.055749018E0
9.206090000E0,1.079505645E-2,8.494725265E-2,-8.479730957E0,8.480163305E0
9.216116000E0,7.123735920E-2,1.004007858E-1,-8.794588317E0,8.795449889E0
9.226142000E0,5.833255425E-2,4.070933864E-2,-9.129318025E0,9.129595146E0
9.236168000E0,2.080022715E-2,-6.024992935E-2,-9.313309436E0,9.313527546E0
9.246195000E0,-2.718560591E-2,-1.307804333E-1,-9.243653310E0,9.244618385E0
9.256221000E0,-8.657964908E-2,-1.057960848E-1,-9.090731664E0,9.091759512E0
9.266247000E0,-1.803004295E-1,-5.142684639E-2,-8.823913273E0,8.825904963E0
9.276273000E0,-3.311580817E-1,-2.840621218E-2,-8.509047142E0,8.515536146E0
9.286300000E0,-5.220019182E-1,-8.548249215E-2,-8.213420690E0,8.230435753E0
9.296326000E0,-7.362695543E-1,-2.784796388E-1,-7.964724575E0,8.003529304E0
9.306352000E0,-9.452982315E-1,-7.220043947E-1,-8.012205135E0,8.100019149E0
9.316378000E0,-1.116055055E0,-1.217839146E0,-8.286912589E0,8.449948599E0
9.326405000E0,-1.348482827E0,-1.466512384E0,-8.465484216E0,8.696751550E0
9.336431000E0,-1.643528944E0,-1.582204515E0,-8.440634719E0,8.743504617E0
9.346457000E0,-1.819695026E0,-1.647369687E0,-8.231123135E0,8.589325057E0
9.356483000E0,-1.821746230E0,-1.558449617E0,-7.911340080E0,8.266609124E0
9.366510000E0,-1.653222896E0,-1.413357539E0,-7.379507166E0,7.693364120E0
9.376536000E0,-1.390970889E0,-1.264038216E0,-6.567276871E0,6.830938305E0
9.386562000E0,-1.153418544E0,-1.238006997E0,-5.810201023E0,6.051567697E0
9.396588000E0,-9.549997124E-1,-1.333788774E0,-5.706664376E0,5.937763488E0
9.406615000E0,-8.203545620E-1,-1.547193873E0,-5.096457136E0,5.388939212E0
9.416641000E0,-5.253210171E-1,-1.787203657E0,-3.511797375E0,3.975271046E0
9.426667000E0,-3.472991744E-1,-2.075836401E0,-1.927881964E0,2.854197321E0
9.436693000E0,-1.696277261E-1,-2.165813209E0,-3.388578415E-1,2.198714411E0
9.446720000E0,1.540327634E-1,-2.022329992E0,1.181645100E0,2.347302672E0
9.456746000E0,3.458305000E-1,-1.719940650E0,2.359585404E0,2.940312544E0
9.466772000E0,1.495039487E-1,-1.431727298E0,2.837091839E0,3.181396641E0
9.476798000E0,2.103524137E-1,-1.051051632E0,2.768389978E0,2.968659755E0
9.486825000E0,-1.558382374E-1,-1.157396697E0,2.508595263E0,2.767110924E0
9.496851000E0,-6.363061403E-1,-1.510131150E0,1.866590281E0,2.483856049E0
9.506877000E0,-1.024414056E0,-1.827709805E0,8.235048956E-1,2.251245789E0
9.516903000E0,-1.390060039E0,-1.892999815E0,-2.674767870E-1,2.363738362E0
9.526930000E0,-1.374437740E0,-1.798637887E0,-4.587386262E-1,2.309679302E0
9.536956000E0,-1.069999826E0,-1.502982198E0,8.482853955E-1,2.030626315E0
9.546982000E0,-5.767066406E-1,-8.973412690E-1,2.985908155E0,3.170719069E0
9.557008000E0,1.843255797E-1,-1.438841166E-1,5.275720489E0,5.280900040E0
9.567034000E0,9.422162372E-1,6.893711572E-1,7.147316571E0,7.242039643E0
9.577061000E0,1.617212380E0,1.364919350E0,8.044175372E0,8.317880627E0
9.587087000E0,2.198950988E0,1.768213070E0,8.139088545E0,8.614332549E0
9.597113000E0,2.441154940E0,1.909119419E0,7.681743895E0,8.283306325E0
9.607138875E0,2.338159744E0,1.745339347E0,6.680624562E0,7.289989367E0
9.617165875E0,2.104909780E0,1.321058070E0,5.410088335E0,5.953561573E0
9.627191875E0,1.847608464E0,8.849309193E-1,4.277680884E0,4.742922466E0
9.637217875E0,1.577537122E0,6.076398001E-1,3.709711007E0,4.076739537E0
9.647243875E0,1.089071690E0,3.296225298E-1,3.933936524E0,4.095190439E0
9.657270875E0,4.931502943E-1,1.336526587E-1,4.861986712E0,4.888760071E0
9.667296875E0,2.049339451E-1,1.250947469E-1,6.278226197E0,6.282815516E0
9.677322875E0,1.630788445E-3,3.681918606E-2,8.069562812E0,8.069646975E0
9.687348875E0,-9.436806723E-2,-9.546617433E-2,1.000529934E1,1.000619978E1
9.697375875E0,-1.368439959E-1,-2.005589122E-1,1.174700479E1,1.174951368E1
9.707401875E0,7.364312299E-2,-2.331819901E-1,1.269320941E1,1.269556467E1
9.717427875E0,5.470972176E-1,-2.099895939E-2,1.263314915E1,1.264500747E1
9.727453875E0,1.171073773E0,5.441366992E-1,1.156642640E1,1.163828674E1
9.737480875E0,1.894604583E0,8.809265267E-1,9.864798936E0,1.008364101E1
9.747506875E0,2.351109719E0,1.101082601E0,8.385448698E0,8.778146141E0
9.757532875E0,2.548710086E0,1.379554054E0,7.103807439E0,7.672233875E0
9.767558875E0,2.580330074E0,1.357937044E0,6.061800866E0,6.726628133E0
9.777585875E0,2.403749717E0,1.041696013E0,5.257640898E0,5.874174929E0
9.787611875E0,1.968271022E0,8.450828755E-1,4.476625380E0,4.962703968E0
9.797637875E0,1.388405277E0,7.592631452E-1,3.612398136E0,3.943801469E0
9.807663875E0,8.433953691E-1,6.239346745E-1,2.819972361E0,3.008796162E0
9.817690875E0,2.722692380E-1,4.329224382E-1,2.117650425E0,2.178530628E0
9.827716875E0,-2.789527517E-1,3.687099970E-1,1.558927335E0,1.626043091E0
9.837742875E0,-4.854484150E-1,3.848445846E-1,1.021242526E0,1.194446238E0
9.847768875E0,-3.439552979E-1,4.118731197E-1,5.619595242E-1,7.770091508E-1
9.857795875E0,-1.589872554E-1,3.871648694E-1,5.844292045E-3,4.185782355E-1
9.867821875E0,-3.557913780E-2,3.127912099E-1,-8.752515846E-1,9.301449094E-1
9.877847875E0,-1.225493078E-1,2.204444155E-1,-1.635277353E0,1.654613579E0
9.887873875E0,-1.383625178E-1,2.649290089E-1,-2.495474696E0,2.513309676E0
9.897900875E0,-1.818833439E-1,4.654490736E-1,-3.296326894E0,3.333990909E0
9.907926875E0,-1.656662375E-2,7.109087913E-1,-4.237609330E0,4.296859155E0
9.917952875E0,-4.581052266E-2,9.224324023E-1,-5.333674582E0,5.413045787E0
9.927978875E0,-2.207263975E-1,1.159728128E0,-6.681069535E0,6.784569228E0
9.938005875E0,-5.426485097E-1,1.428467329E0,-7.856393795E0,8.003618543E0
9.948031875E0,-7.824996147E-1,1.399578137E0,-8.910277818E0,9.053406839E0
9.958057875E0,-9.240050109E-1,1.153672751E0,-9.354576160E0,9.470630455E0
9.968083875E0,-2.268947166E-1,8.707951292E-1,-9.545137503E0,9.587461360E0
9.978110875E0,1.575679169E-1,6.008590765E-1,-9.506523076E0,9.526795908E0
9.988136875E0,4.524251682E-1,2.794335755E-1,-9.435849534E0,9.450821556E0
9.998162875E0,5.902549316E-1,4.128960170E-2,-9.489715839E0,9.508144531E0
1.000818888E1,-4.040147359E-2,-2.476101043E-1,-9.464099187E0,9.467423962E0
1.001821588E1,-7.437391531E-1,-5.057468414E-1,-9.445486915E0,9.488211152E0
1.002824187E1,-1.334336805E0,-7.410572545E-1,-9.358649331E0,9.482296022E0
1.003826788E1,-1.699777550E0,-8.556599770E-1,-9.221222806E0,9.415537571E0
1.004829388E1,-1.608762715E0,-6.629129449E-1,-8.948427976E0,9.116026234E0
1.005832088E1,-1.211841803E0,-1.891386422E-1,-8.261239219E0,8.351790671E0
1.006834688E1,-1.115404187E0,1.244653673E-1,-7.112998093E0,7.200997153E0
1.007837287E1,-8.682724942E-1,1.774131475E-1,-5.900865026E0,5.967041193E0
1.008839888E1,-4.287744235E-1,-4.989407189E-2,-4.804649500E0,4.824001839E0
1.009842588E1,-3.453155065E-1,-1.993475153E-1,-4.453559284E0,4.471372555E0
1.010845188E1,-5.695781538E-1,-4.598778100E-1,-3.728782870E0,3.799964285E0
1.011847788E1,-4.767518511E-1,-7.870075256E-1,-2.688957893E0,2.842035841E0
1.012850387E1,-2.799822271E-1,-1.191348628E0,-1.635059252E0,2.042332088E0
1.013853088E1,2.105222753E-1,-1.731795588E0,-8.683302355E-1,1.948700332E0
1.014855688E1,9.113145795E-1,-2.103580416E0,-4.729350811E-1,2.340771757E0
1.015858288E1,6.617027175E-1,-2.254338885E0,-5.609081948E-1,2.415473514E0
1.016860888E1,4.210959329E-1,-2.111487021E0,-1.078776205E0,2.408206246E0
1.017863487E1,9.799341403E-2,-1.831020206E0,-1.770917553E0,2.549193340E0
1.018866188E1,-3.619261305E-1,-1.560117828E0,-2.284679648E0,2.790110975E0
1.019868788E1,-4.117622419E-1,-1.528842094E0,-2.372047575E0,2.851931975E0
1.020871388E1,1.392455205E-1,-1.551987567E0,-1.625601965E0,2.251807379E0
1.021873988E1,9.043049374E-1,-1.493812595E0,-2.266363245E-1,1.760854200E0
1.022876687E1,1.457626808E0,-1.154326616E0,1.223306512E0,2.225673981E0
1.023879288E1,1.731549420E0,-5.773248374E-1,2.028200889E0,2.728583187E0
1.024881888E1,1.662220299E0,3.748708427E-2,1.920147268E0,2.539950223E0
1.025884488E1,1.536821497E0,4.263627394E-1,1.039989284E0,1.903991389E0
1.026887188E1,1.374332929E0,4.585423060E-1,2.045665938E-1,1.463181307E0
1.027889787E1,1.129262599E0,2.713147531E-1,2.602975756E-1,1.190210293E0
1.028892388E1,1.124152864E0,3.467812572E-1,1.716708017E0,2.081120688E0
1.029894988E1,1.043117106E0,-1.663322353E-1,3.647921725E0,3.797774693E0
1.030897688E1,5.789169246E-1,-2.419914052E-1,4.939048921E0,4.978745715E0
1.031900288E1,2.547254714E-1,4.819713682E-2,5.415588811E0,5.421790313E0
1.032902888E1,3.206294025E-1,2.832870734E-1,5.150118204E0,5.167859547E0
1.033905488E1,2.014362138E-2,5.338776863E-1,4.769278523E0,4.799109166E0
1.034908188E1,-4.620986556E-1,9.767338130E-1,5.174320999E0,5.285938129E0
1.035910788E1,-8.215441780E-1,1.174848297E0,6.248591924E0,6.410936311E0
1.036913388E1,-1.142339970E0,1.369073505E0,7.288749023E0,7.503676778E0
1.037915988E1,-1.120995075E0,1.794005577E0,8.126670229E0,8.397490993E0
1.038918688E1,-7.027506830E-1,2.221505015E0,8.491207872E0,8.805086835E0
1.039921288E1,-5.888240448E-1,2.580732948E0,8.182743273E0,8.600243239E0
1.040923888E1,-7.301134595E-1,2.877548139E0,7.498915495E0,8.065177156E0
1.041926488E1,-8.796514682E-1,3.013663718E0,6.772890117E0,7.465118636E0
1.042929187E1,-1.061932277E0,2.768159598E0,6.137874311E0,6.816443998E0
1.043931788E1,-1.199018640E0,2.188332006E0,6.333840235E0,6.807640912E0
1.044934388E1,-1.433812999E0,1.245973828E0,8.851279997E0,9.052813269E0
1.045936988E1,-1.569682411E0,4.340201068E-1,1.124041372E1,1.135778046E1
1.046939688E1,-1.867827551E0,-3.526645795E-2,1.130753625E1,1.146082019E1
1.047942288E1,-2.035319436E0,5.844657496E-2,1.000994203E1,1.021493420E1
1.048944888E1,-1.860227925E0,3.784303352E-1,8.464464462E0,8.674722824E0
1.049947488E1,-1.434575915E0,4.664163128E-1,6.503891884E0,6.676538165E0
1.050950188E1,-1.058935286E0,1.287752915E0,5.045823757E0,5.314131058E0
1.051952788E1,-6.848852465E-1,1.667561439E0,3.893700079E0,4.290772571E0
1.052955388E1,-2.104513595E-1,1.788968785E0,2.490696352E0,3.073803410E0
1.053957988E1,1.350089204E-1,1.922985506E0,1.280195242E0,2.314087406E0
1.054960588E1,2.585348228E-1,1.748186502E0,3.556668323E-1,1.802635625E0
1.055963288E1,3.967452399E-1,1.284823021E0,-3.445419198E-1,1.388123235E0
1.056965887E1,5.315759298E-1,5.597841407E-1,-8.567960179E-1,1.153269556E0
1.057968488E1,5.108481351E-1,-1.467351459E-1,-1.176480255E0,1.290969717E0
1.058971088E1,3.776130041E-1,-5.954023086E-1,-1.393267529E0,1.561502449E0
1.059973788E1,1.243043496E-1,-9.205376852E-1,-1.450277882E0,1.722250602E0
1.060976413E1,-2.256449657E-1,-9.201176358E-1,-1.639561608E0,1.893592982E0
1.061979013E1,-1.528269213E-1,-7.156827506E-1,-1.624544204E0,1.781769272E0
1.062981613E1,1.046341699E-1,-4.407094677E-1,-1.655263136E0,1.716120390E0
1.063984313E1,1.871596520E-1,-7.659940213E-2,-2.287469940E0,2.296391719E0
1.064986912E1,3.471156814E-1,2.463169926E-1,-3.486798189E0,3.512680311E0
1.065989513E1,5.357824899E-1,5.302207280E-1,-4.932793570E0,4.990055040E0
1.066992113E1,4.739976298E-1,8.131279881E-1,-6.148805680E0,6.220422990E0
1.067994813E1,9.446845662E-2,1.037172973E0,-6.948614734E0,7.026229344E0
1.068997413E1,-1.583641067E-1,1.025097230E0,-7.629752793E0,7.699937091E0
1.070000013E1,-3.171297709E-2,9.443007696E-1,-8.261992341E0,8.315841935E0
1.071002613E1,-2.742371550E-2,8.394574155E-1,-8.415695175E0,8.457503538E0
1.072005313E1,-9.760137649E-2,4.213802538E-1,-8.616710170E0,8.627559417E0
1.073007913E1,-1.488842626E-1,-1.240749925E-2,-8.820745252E0,8.822010387E0
1.074010513E1,-3.727487420E-1,-3.001000111E-1,-8.843124300E0,8.856062840E0
1.075013113E1,-6.571529259E-1,-5.100679703E-1,-8.611011474E0,8.651100387E0
1.076015813E1,-8.435835032E-1,-5.948884480E-1,-8.155491740E0,8.220557822E0
1.077018413E1,-8.112000149E-1,-5.701577225E-1,-7.782789629E0,7.845695616E0
1.078021013E1,-7.206302259E-1,-4.352283974E-1,-7.544700948E0,7.591524490E0
1.079023613E1,-6.257237032E-1,-3.056069919E-1,-7.198184423E0,7.231789874E0
1.080026313E1,-5.488235715E-1,-3.428413302E-1,-6.630115144E0,6.661619496E0
1.081028913E1,-5.848142436E-1,-5.774478482E-1,-5.801523170E0,5.859447484E0
1.082031513E1,-6.202558988E-1,-8.122355568E-1,-4.884242969E0,4.990017371E0
1.083034113E1,-5.348202209E-1,-1.037159963E0,-3.943006725E0,4.112059763E0
1.084036813E1,-3.808041221E-1,-1.208518976E0,-3.457132925E0,3.682023623E0
1.085039413E1,-2.705044387E-1,-1.228712263E0,-3.432919021E0,3.656205612E0
1.086042013E1,-1.612951149E-1,-1.065456028E0,-3.733946546E0,3.886331107E0
1.087044613E1,-6.800728418E-2,-8.797543062E-1,-4.152467439E0,4.245182971E0
1.088047213E1,9.377826590E-2,-7.663368874E-1,-4.521855932E0,4.587291974E0
1.089049913E1,1.241333551E-1,-7.568255872E-1,-4.652660485E0,4.715447343E0
1.090052513E1,6.682526954E-3,-8.537981504E-1,-4.384412450E0,4.466776071E0
1.091055113E1,-2.474455052E-1,-1.031740106E0,-3.626199903E0,3.778232743E0
1.092057713E1,-4.497042030E-1,-1.334088298E0,-2.418432367E0,2.798363910E0
1.093060413E1,-4.572569418E-1,-1.654520540E0,-1.015526288E0,1.994446231E0
1.094063012E1,-4.740276334E-1,-1.896751681E0,3.985742855E-1,1.995302132E0
1.095065613E1,-6.204102653E-1,-1.802191240E0,1.376819311E0,2.351262125E0
1.096068213E1,-3.012029421E-1,-1.418263791E0,1.833764012E0,2.337709530E0
1.097070913E1,2.373861381E-1,-8.112337095E-1,2.026789371E0,2.195979842E0
1.098073513E1,6.964640491E-1,2.102410242E-2,2.377194879E0,2.477208041E0
1.099076112E1,9.232634378E-1,7.491328441E-1,2.953281276E0,3.183627756E0
1.100078713E1,9.715895788E-1,1.211364231E0,3.877027913E0,4.176450054E0
1.101081413E1,9.583403729E-1,1.319387667E0,5.276769480E0,5.522997033E0
1.102084013E1,9.205144425E-1,9.984820931E-1,6.820989897E0,6.954869985E0
1.103086613E1,9.551770292E-1,7.372428234E-1,7.702993262E0,7.796922170E0
1.104089212E1,1.228516088E0,6.785835560E-1,7.824867362E0,7.949734377E0
1.105091913E1,1.402571619E0,8.012901539E-1,7.449085523E0,7.622214127E0
1.106094513E1,1.397397856E0,9.860694775E-1,6.693596610E0,6.908638749E0
1.107097113E1,1.357918772E0,1.156467794E0,6.057776812E0,6.314904675E0
1.108099713E1,1.277106158E0,1.211456544E0,6.597604625E0,6.828397607E0
1.109102412E1,1.190669400E0,9.579154265E-1,8.026906205E0,8.171078191E0
1.110105013E1,8.952980326E-1,5.056070929E-1,9.464874528E0,9.520559171E0
1.111107613E1,5.017715022E-1,2.670819172E-1,1.070370247E1,1.071878510E1
1.112110213E1,3.520522298E-1,2.144208698E-1,1.151232328E1,1.151970071E1
1.113112913E1,3.483243009E-1,2.962223569E-1,1.145771029E1,1.146683054E1
1.114115512E1,3.256725895E-1,4.221276376E-1,1.084372224E1,1.085682119E1
1.115118113E1,2.493343752E-1,5.500638755E-1,1.005773717E1,1.007585306E1
1.116120713E1,1.992945249E-1,6.862080328E-1,9.607549514E0,9.634085708E0
1.117123313E1,2.879031578E-1,7.237347320E-1,9.272319869E0,9.304976945E0
1.118126013E1,4.152718869E-1,6.270200309E-1,8.652978110E0,8.685599290E0
1.119128612E1,4.714110775E-1,5.092871112E-1,7.855239555E0,7.885834783E0
1.120131213E1,4.015153619E-1,4.048495173E-1,6.942637711E0,6.966012927E0
1.121133813E1,2.166120042E-1,2.716084296E-1,5.857511430E0,5.867804704E0
1.122136513E1,-3.193383738E-2,1.182096871E-1,4.768127791E0,4.769699774E0
1.123139113E1,-2.963319191E-1,3.295607686E-2,3.948969716E0,3.960209657E0
1.124141713E1,-3.672476084E-1,1.181634941E-1,3.147027013E0,3.170585504E0
1.125144313E1,-3.144084401E-1,2.664864514E-1,2.137695265E0,2.177064248E0
1.126147013E1,-1.613841753E-1,4.330132893E-1,9.709652424E-1,1.075322678E0
1.127149613E1,-3.333716914E-2,5.031537840E-1,-3.580998588E-1,6.184744182E-1
1.128152213E1,-7.656212613E-2,4.721131819E-1,-1.688993384E0,1.755406297E0
1.129154813E1,-5.455971144E-2,4.836065421E-1,-2.902209941E0,2.942732504E0
1.130157513E1,-4.136978164E-2,4.018802281E-1,-4.177212270E0,4.196703650E0
1.131160113E1,-1.465103935E-1,2.572749671E-1,-5.315652879E0,5.323891550E0
1.132162713E1,-2.185678978E-1,7.994782845E-2,-5.917813765E0,5.922388314E0
1.133165313E1,-3.430299395E-1,-4.697008034E-2,-5.909445230E0,5.919579263E0
1.134168013E1,-5.287387512E-1,9.693570754E-2,-5.508682331E0,5.534847986E0
1.135170613E1,-4.997080929E-1,4.064251227E-1,-5.109132730E0,5.149575401E0
1.136173213E1,-5.671762272E-1,7.674029079E-1,-5.063496382E0,5.152629591E0
1.137175813E1,-1.981520520E-1,1.162727896E0,-5.167306679E0,5.300213081E0
1.138178513E1,5.575363613E-1,1.290288998E0,-6.178107247E0,6.335984663E0
1.139181113E1,9.609277658E-1,1.464119118E0,-7.154699265E0,7.365918038E0
1.140183713E1,1.000160756E0,1.502522607E0,-7.697188731E0,7.905985712E0
1.141186313E1,1.215337268E0,1.338226519E0,-8.020925673E0,8.222113082E0
1.142189013E1,1.211429574E0,1.004135620E0,-8.236514853E0,8.385465215E0
1.143191613E1,1.040233479E0,6.123299979E-1,-8.469902372E0,8.555482448E0
1.144194213E1,8.349931394E-1,2.317877215E-1,-8.546255314E0,8.590076774E0
1.145196813E1,5.663735142E-1,-1.066824496E-3,-8.407273430E0,8.426329368E0
1.146199513E1,3.521029544E-1,-2.883834334E-1,-7.998126794E0,8.011065704E0
1.147202113E1,4.889037540E-1,-8.367133172E-1,-7.510829197E0,7.573088623E0
1.148204712E1,6.557622387E-1,-1.415633860E0,-7.101279688E0,7.270640724E0
1.149207313E1,8.351613931E-1,-1.844789229E0,-6.684166220E0,6.984183554E0
1.150209913E1,9.732740155E-1,-1.977602886E0,-6.162408643E0,6.544727325E0
1.151212613E1,8.868672978E-1,-1.847957105E0,-5.533399681E0,5.900846643E0
1.152215213E1,5.185673368E-1,-1.615124193E0,-4.616105447E0,4.917923112E0
1.153217812E1,2.513801880E-1,-1.347045435E0,-3.651475663E0,3.900127936E0
1.154220413E1,2.080574546E-1,-1.144972094E0,-2.798069276E0,3.030419224E0
1.155223113E1,1.359427938E-1,-1.106337056E0,-2.211839129E0,2.476831535E0
1.156225713E1,1.829213709E-2,-1.155830520E0,-1.792499042E0,2.132916221E0
1.157228313E1,-1.266236477E-1,-1.287258679E0,-1.653166324E0,2.099053918E0
1.158230912E1,-3.129913674E-1,-1.574225112E0,-1.785847834E0,2.401124900E0
1.159233613E1,-5.817056445E-1,-1.899587434E0,-1.794304077E0,2.677002241E0
1.160236192E1,-7.972410301E-1,-2.062010075E0,-1.695261015E0,2.785926904E0
1.161238792E1,-9.560291147E-1,-2.114039623E0,-1.454115994E0,2.738176130E0
1.162241392E1,-9.908272107E-1,-2.018510153E0,-1.328072829E0,2.611493679E0
1.163244092E1,-1.060999500E0,-1.690354324E0,-1.486059333E0,2.488250393E0
1.164246692E1,-1.160213081E0,-1.274559842E0,-1.669024558E0,2.399216572E0
1.165249292E1,-1.019563644E0,-9.258928576E-1,-1.683827369E0,2.175330370E0
1.166251892E1,-7.988217518E-1,-7.843515010E-1,-1.364487534E0,1.764978668E0
1.167254592E1,-6.314476888E-1,-7.729467992E-1,-4.980956501E-1,1.115469504E0
1.168257192E1,-4.471178699E-1,-8.591784659E-1,6.823607111E-1,1.184786127E0
1.169259792E1,-2.624033407E-1,-9.174035776E-1,1.657531271E0,1.912562352E0
1.170262392E1,-8.031870637E-2,-8.327518286E-1,2.220839163E0,2.373194744E0
1.171264992E1,1.495230983E-1,-5.194488046E-1,2.402303993E0,2.462366482E0
1.172267692E1,4.299390061E-1,-2.014409646E-2,2.318111104E0,2.357730354E0
1.173270292E1,7.093482426E-1,5.206543542E-1,2.154524721E0,2.327280099E0
1.174272892E1,9.736836860E-1,9.987357891E-1,2.322595333E0,2.709240148E0
1.175275492E1,1.043279805E0,1.074537193E0,3.175086631E0,3.510589416E0
1.176278192E1,7.270023023E-1,8.848296162E-1,4.431020606E0,4.576614405E0
1.177280792E1,4.727350333E-1,5.459209040E-1,6.041226853E0,6.084236183E0
1.178283392E1,2.241366398E-1,2.755971077E-1,7.695870184E0,7.704064439E0
1.179285992E1,-1.873305369E-2,1.871276385E-1,8.743819283E0,8.745841488E0
1.180288692E1,-1.128483019E-1,1.913309826E-1,9.146328160E0,9.149025144E0
1.181291292E1,-4.738930743E-2,3.350480881E-1,8.928993586E0,8.935403148E0
1.182293892E1,3.172803001E-1,5.223894424E-1,8.236466321E0,8.259112239E0
1.183296492E1,7.440796803E-1,6.502829591E-1,7.672010036E0,7.735390131E0
1.184299192E1,9.519524360E-1,7.631307860E-1,7.389142208E0,7.489192520E0
1.185301792E1,9.536042744E-1,8.395470241E-1,7.273938026E0,7.384062210E0
1.186304392E1,8.979640706E-1,9.277361193E-1,7.411892554E0,7.523508823E0
1.187306992E1,8.166045233E-1,8.922397196E-1,7.619241838E0,7.714647163E0
1.188309692E1,5.684798640E-1,6.797307797E-1,7.903545742E0,7.953064729E0
1.189312292E1,3.451045682E-1,4.345877253E-1,8.203472237E0,8.222221135E0
1.190314892E1,1.521512025E-1,2.503329699E-1,8.110515541E0,8.115804269E0
1.191317492E1,4.550654054E-2,1.074824218E-1,7.542667286E0,7.543570316E0
1.192320092E1,-4.045176879E-2,1.108297335E-1,6.612433164E0,6.613485610E0
1.193322792E1,-1.316373427E-1,1.631216754E-1,5.495429032E0,5.499425181E0
1.194325392E1,-1.237064718E-1,1.585104150E-1,4.307686456E0,4.312376543E0
1.195327992E1,7.070964798E-2,1.104479834E-1,2.950025547E0,2.952939101E0
1.196330592E1,3.577352118E-1,5.608199749E-2,1.417599548E0,1.463115904E0
1.197333292E1,5.681334530E-1,9.205827087E-2,-1.280598700E-2,5.756859725E-1
1.198335892E1,5.616022593E-1,9.652678616E-2,-1.024708171E0,1.172493648E0
1.199338492E1,4.225227997E-1,5.405611999E-2,-1.412038845E0,1.474890261E0
1.200341092E1,4.092085435E-1,5.333654702E-2,-1.589452724E0,1.642149926E0
1.201343792E1,3.628878513E-1,1.628055238E-1,-1.681839316E0,1.728229359E0
1.202346392E1,2.968374109E-1,3.661381723E-1,-1.895795953E0,1.953512710E0
1.203348992E1,1.418409533E-1,5.146858089E-1,-2.222999709E0,2.286208224E0
1.204351592E1,-7.072426602E-2,6.566906304E-1,-2.528538947E0,2.613379748E0
1.205354292E1,-1.945256089E-1,7.158445723E-1,-2.979024228E0,3.069993325E0
1.206356892E1,-2.436112301E-1,6.621121687E-1,-3.619326501E0,3.687446716E0
1.207359492E1,-2.247537404E-1,6.448728959E-1,-4.286965678E0,4.341019468E0
1.208362092E1,-9.756386295E-2,6.934492247E-1,-4.832085806E0,4.882565285E0
1.209364792E1,6.511568986E-2,8.495167460E-1,-5.219034072E0,5.288122105E0
1.210367392E1,1.464325890E-1,9.898851512E-1,-5.689886960E0,5.777207693E0
1.211369992E1,1.489185145E-1,1.045035066E0,-6.364587818E0,6.451531067E0
1.212372592E1,1.917045649E-1,9.991958188E-1,-7.135710433E0,7.207878072E0
1.213375192E1,3.222871978E-1,8.826076743E-1,-7.819441146E0,7.875692045E0
1.214377892E1,4.585419405E-1,7.102400891E-1,-8.442833857E0,8.485054227E0
1.215380492E1,6.073477317E-1,6.529457080E-1,-8.873546779E0,8.918242080E0
1.216383092E1,7.930455067E-1,7.232530676E-1,-9.017627435E0,9.081278584E0
1.217385692E1,8.494510379E-1,7.721953589E-1,-8.713121400E0,8.788420636E0
1.218388392E1,6.532407732E-1,9.410496446E-1,-8.026117415E0,8.107456982E0
1.219390992E1,3.686435215E-1,1.117484407E0,-7.151364598E0,7.247529583E0
1.220393592E1,4.550785616E-2,1.159819198E0,-6.086716436E0,6.196399641E0
1.221396192E1,-2.734281562E-1,8.654550865E-1,-4.896111647E0,4.979526557E0
1.222398892E1,-5.685575954E-1,2.996483502E-1,-3.718860730E0,3.773986222E0
1.223401492E1,-9.063904200E-1,-2.952148086E-1,-2.420535611E0,2.601478045E0
1.224404092E1,-1.083318760E0,-7.048503450E-1,-8.691587859E-1,1.557507798E0
1.225406692E1,-1.092565401E0,-9.007515114E-1,7.882151949E-1,1.620597308E0
1.226409392E1,-9.478127535E-1,-8.872887359E-1,2.221577666E0,2.573137704E0
1.227411992E1,-5.772518934E-1,-8.142092114E-1,3.076674483E0,3.234514224E0
1.228414592E1,-3.758546367E-1,-6.574248214E-1,2.920983596E0,3.017551867E0
1.229417192E1,-4.874205346E-1,-4.200057927E-1,1.927367409E0,2.031927355E0
1.230419792E1,-5.296804087E-1,-2.460709527E-1,3.918476486E-1,7.033184406E-1
1.231422492E1,-3.914048682E-1,-1.057030684E-1,-1.376411176E0,1.434879310E0
1.232425092E1,-4.172097272E-1,1.403374469E-2,-3.202862075E0,3.229951451E0
1.233427692E1,-3.644785863E-1,1.089372273E-1,-4.857749235E0,4.872621429E0
1.234430292E1,-3.952761635E-2,2.071991199E-1,-5.977182299E0,5.980903122E0
1.235432992E1,5.946120574E-1,3.503234639E-1,-6.446041287E0,6.482880401E0
1.236435592E1,1.264311135E0,5.577365188E-1,-6.051041404E0,6.206823241E0
1.237438192E1,1.677342515E0,6.322347240E-1,-4.400810382E0,4.751876542E0
1.238440792E1,1.719151861E0,7.504547533E-1,-1.843562191E0,2.630092586E0
1.239443492E1,1.426980382E0,7.685855804E-1,8.983545184E-1,1.853115659E0
1.240446092E1,8.342298585E-1,5.693232152E-1,3.634404132E0,3.772129607E0
1.241448692E1,3.833161224E-1,2.194375250E-1,5.819448395E0,5.836185715E0
1.242451292E1,-7.301695928E-2,-1.819104238E-1,7.040603716E0,7.043331851E0
1.243453992E1,-5.296369931E-1,-3.354521307E-1,7.012604324E0,7.040572624E0
1.244456592E1,-6.347811864E-1,-1.495223674E-1,5.691097918E0,5.728341785E0
1.245459192E1,-1.489168151E-1,1.860698407E-1,3.559374999E0,3.567344753E0
1.246461792E1,4.031557252E-1,5.721428522E-1,1.435065765E0,1.596651412E0
1.247464392E1,6.312896678E-1,9.698059588E-1,-1.010053879E-1,1.161573214E0
1.248467092E1,6.746310575E-1,1.299104114E0,-8.889422554E-1,1.712605295E0
1.249469692E1,6.427328881E-1,1.441352253E0,-1.004434120E0,1.870692328E0
1.250472292E1,6.740828079E-1,1.270307893E0,-2.239296484E-1,1.455408624E0
1.251474892E1,6.945680894E-1,8.534296297E-1,1.705303608E0,2.029489433E0
1.252477592E1,6.039532037E-1,2.600430755E-1,4.448669257E0,4.497003450E0
1.253480192E1,4.883796973E-1,-5.502136008E-1,7.974140931E0,8.008006826E0
1.254482792E1,3.841409453E-1,-1.170829798E0,1.110647272E1,1.117462049E1
1.255485392E1,3.479930927E-1,-1.390234871E0,1.259336587E1,1.267464856E1
1.256488092E1,5.404349001E-1,-1.256599388E0,1.235653726E1,1.243202015E1
1.257490692E1,6.390856873E-1,-7.624035385E-1,1.116881807E1,1.121303647E1
1.258493292E1,6.789427943E-1,-1.257442995E-1,9.536963680E0,9.561927169E0
1.259495892E1,5.446344434E-1,4.241002323E-1,7.893934674E0,7.924057819E0
1.260498625E1,1.722424547E-1,5.938888299E-1,6.770648879E0,6.798827667E0
1.261501225E1,-2.075008728E-2,4.321272169E-1,6.412258998E0,6.426836699E0
1.262503825E1,-8.346344858E-2,3.757458785E-1,6.500600486E0,6.511985703E0
1.263506425E1,-2.491339984E-1,3.273134644E-1,6.302790935E0,6.316199445E0
1.264509125E1,-1.939302161E-1,2.557742792E-1,5.679858985E0,5.688921471E0
1.265511725E1,-5.061773792E-2,2.901439204E-1,4.914519852E0,4.923337387E0
1.266514325E1,-1.494562939E-2,3.264242490E-1,4.305769739E0,4.318151133E0
1.267516925E1,-8.509452939E-2,2.191684069E-1,3.925586700E0,3.932620858E0
1.268519525E1,-1.557932138E-1,-6.585879788E-2,3.693663324E0,3.697533996E0
1.269522225E1,-2.767361453E-1,-2.687625531E-1,3.263680719E0,3.286400469E0
1.270524825E1,-3.299412762E-1,-2.751845136E-1,2.292859318E0,2.332764801E0
1.271527425E1,-2.247125906E-1,-1.305342655E-1,8.330247474E-1,8.726197182E-1
1.272530025E1,-1.572218348E-1,2.139473549E-1,-7.902997273E-1,8.337060843E-1
1.273532725E1,-1.523752239E-1,5.979611964E-1,-2.267566602E0,2.350028531E0
1.274535325E1,-2.604120348E-1,9.966533033E-1,-3.474245387E0,3.623742988E0
1.275537925E1,-5.189752532E-1,1.266854820E0,-4.454107168E0,4.659756121E0
1.276540525E1,-6.809560637E-1,1.427130363E0,-5.288127111E0,5.519482818E0
1.277543225E1,-6.629552642E-1,1.491175062E0,-6.195251284E0,6.406578745E0
1.278545825E1,-6.074778322E-1,1.449500640E0,-7.124982546E0,7.296263270E0
1.279548425E1,-6.098649580E-1,1.377091499E0,-7.829612963E0,7.973152163E0
1.280551025E1,-4.532592735E-1,1.269599357E0,-8.215741450E0,8.325607129E0
1.281553725E1,-2.510656261E-1,1.170391037E0,-8.317964228E0,8.403652660E0
1.282556325E1,-4.161283578E-1,1.184570608E0,-7.960736189E0,8.059137113E0
1.283558925E1,-3.986418208E-1,1.265235726E0,-7.333713527E0,7.452723719E0
1.284561525E1,-4.914812797E-1,1.210658253E0,-6.371932506E0,6.504519284E0
1.285564125E1,-5.466013006E-1,1.068614767E0,-5.206277202E0,5.342848754E0
1.286566825E1,-5.161067554E-1,7.339727680E-1,-4.500180888E0,4.588759117E0
1.287569425E1,-5.368124038E-1,2.578695558E-1,-4.528065675E0,4.567060654E0
1.288572025E1,-6.142985362E-1,-1.828695865E-1,-5.065798430E0,5.106184262E0
1.289574625E1,-7.004621559E-1,-4.680321908E-1,-5.731392251E0,5.792974926E0
1.290577325E1,-7.419276126E-1,-6.012122483E-1,-6.164518318E0,6.238044473E0
1.291579925E1,-7.410158124E-1,-6.713747431E-1,-6.283222058E0,6.362289518E0
1.292582525E1,-6.350662382E-1,-7.733932342E-1,-6.103576298E0,6.185069914E0
1.293585125E1,-4.829111985E-1,-7.704056724E-1,-5.755020264E0,5.826404240E0
1.294587825E1,-3.231966591E-1,-6.158443207E-1,-5.178652616E0,5.225147197E0
1.295590425E1,-2.103009582E-1,-3.523699529E-1,-4.305036498E0,4.324549725E0
1.296593025E1,-1.058066098E-1,-4.777577184E-2,-3.270007406E0,3.272067542E0
1.297595625E1,-3.603432161E-1,1.566764358E-1,-1.799232695E0,1.841638681E0
1.298598325E1,-8.858506132E-1,3.140906440E-1,-3.517269784E-1,1.003541782E0
1.299600925E1,-1.461365957E0,2.697332275E-1,7.937741429E-1,1.684762257E0
1.300603525E1,-1.891641653E0,1.168376014E-2,1.543778368E0,2.441658515E0
1.301606125E1,-1.957466975E0,-3.053309302E-1,1.667161050E0,2.589272080E0
1.302608725E1,-1.713085521E0,-5.380881932E-1,1.042605913E0,2.076349680E0
1.303611425E1,-1.374422245E0,-5.434905819E-1,-2.076708806E-1,1.492496471E0
1.304614025E1,-6.966026281E-1,-6.155758604E-1,-1.222266292E0,1.535618361E0
1.305616625E1,-3.004175514E-1,-5.043559715E-1,-2.088137189E0,2.169087958E0
1.306619225E1,-2.262322454E-1,-3.040734865E-1,-2.638091794E0,2.665177298E0
1.307621925E1,-2.577107126E-1,-2.235991345E-1,-2.324689806E0,2.349594450E0
1.308624525E1,-3.024200035E-1,-1.994197284E-1,-1.089246229E0,1.147903931E0
1.309627125E1,-3.671293119E-1,-8.982054144E-3,1.066448520E0,1.127908265E0
1.310629725E1,6.739266872E-2,6.145277470E-3,3.356666066E0,3.357348152E0
1.311632425E1,4.936909791E-1,7.512941211E-3,5.127523393E0,5.151240955E0
1.312635025E1,8.686202574E-1,2.857350102E-1,6.293413755E0,6.359497020E0
1.313637625E1,1.306228070E0,6.230120569E-1,6.706349387E0,6.860721383E0
1.314640225E1,1.528765057E0,8.255262780E-1,6.182441788E0,6.421931384E0
1.315642825E1,1.352164088E0,8.298269051E-1,5.022274096E0,5.266896383E0
1.316645525E1,9.794957453E-1,6.383057418E-1,3.915341209E0,4.086164818E0
1.317648125E1,7.992465520E-1,4.461342220E-1,3.117623704E0,3.249216576E0
1.318650725E1,8.283272405E-1,4.331991577E-1,2.920861389E0,3.066792915E0
1.319653325E1,9.864479385E-1,5.955568944E-1,3.216441064E0,3.416615382E0
1.320656025E1,1.324548419E0,8.415602204E-1,4.051700032E0,4.344988524E0
1.321658625E1,1.653286192E0,9.381046213E-1,5.239213398E0,5.573396859E0
1.322661225E1,1.690568039E0,7.623462358E-1,6.436208024E0,6.698056868E0
1.323663825E1,1.298416189E0,6.264078274E-1,7.280194547E0,7.421556710E0
1.324666525E1,8.913622718E-1,3.490685418E-1,7.569497235E0,7.629787936E0
1.325669125E1,4.510789565E-1,-2.207376534E-1,7.364034263E0,7.381137986E0
1.326671725E1,-7.917382155E-2,-6.324089710E-1,7.090539522E0,7.119126373E0
1.327674325E1,-5.493912265E-1,-7.823779196E-1,6.791384860E0,6.858341945E0
1.328677025E1,-7.079764127E-1,-6.546788228E-1,6.511984431E0,6.582991431E0
1.329679625E1,-5.076462729E-1,-3.259373952E-1,6.218496889E0,6.247691053E0
1.330682225E1,7.598102253E-2,3.841109052E-2,5.785197744E0,5.785824182E0
1.331684825E1,6.512287463E-1,2.660971364E-1,4.928593515E0,4.978548042E0
1.332687425E1,9.262403284E-1,4.236774056E-1,3.614411917E0,3.755182711E0
1.333690125E1,6.779907945E-1,6.218600093E-1,2.171185192E0,2.358055667E0
1.334692725E1,1.551433689E-1,6.754571959E-1,9.626060629E-1,1.186137564E0
1.335695325E1,-1.986433278E-1,4.709617920E-1,2.951551670E-1,5.902378790E-1
1.336697925E1,-5.020870326E-1,-1.263747025E-1,2.518483490E-1,5.757512871E-1
1.337700625E1,-6.908458250E-1,-7.890646492E-1,1.732839900E-1,1.062976160E0
1.338703225E1,-9.515583336E-1,-1.295784942E0,-3.097679436E-2,1.607943233E0
1.339705825E1,-1.186734370E0,-1.574538085E0,-3.718069017E-1,2.006426928E0
1.340708425E1,-1.142407944E0,-1.693252935E0,-6.855088520E-1,2.154558841E0
1.341711125E1,-8.724149542E-1,-1.656443689E0,-7.503246528E-1,2.016903724E0
1.342713725E1,-5.630627110E-1,-1.423624957E0,-8.469417053E-1,1.749587919E0
1.343716325E1,-2.086232824E-1,-1.116527291E0,-1.202240163E0,1.653946273E0
1.344718925E1,1.542870076E-1,-9.630153680E-1,-1.766317549E0,2.017691940E0
1.345721525E1,4.435663807E-1,-8.731100419E-1,-2.515407270E0,2.699323251E0
1.346724225E1,3.528070322E-1,-7.510409367E-1,-3.301712179E0,3.404385202E0
1.347726825E1,1.393587554E-1,-6.489538139E-1,-4.023291920E0,4.077675783E0
1.348729425E1,5.376854662E-2,-5.935225019E-1,-4.589416416E0,4.627948039E0
1.349732025E1,2.684534364E-1,-5.815839493E-1,-5.013930119E0,5.054681234E0
1.350734725E1,5.562934991E-1,-7.257958755E-1,-5.359708140E0,5.437160423E0
1.351737325E1,7.734131147E-1,-9.242125140E-1,-5.717023303E0,5.842661385E0
1.352739925E1,8.121338884E-1,-9.942036854E-1,-6.087986451E0,6.221863182E0
1.353742525E1,6.171258842E-1,-1.026615094E0,-6.447832289E0,6.558149444E0
1.354745225E1,3.130355870E-1,-1.024720377E0,-6.696222010E0,6.781403419E0
1.355747825E1,9.043312864E-2,-9.875138859E-1,-6.803250614E0,6.875142235E0
1.356750425E1,9.423523311E-1,-8.290390659E-1,-6.350859725E0,6.473697007E0
1.357753025E1,1.088097982E0,-6.419534542E-1,-5.998527560E0,6.130121887E0
1.358755625E1,2.255106624E-1,-5.996367160E-1,-5.834271086E0,5.869338835E0
1.359758325E1,-2.181035924E-1,-6.618372765E-1,-5.746643543E0,5.788739912E0
1.360760842E1,-3.097550797E-1,-7.877591852E-1,-5.677545826E0,5.740299588E0
1.361763442E1,-2.470981441E-1,-9.421076982E-1,-5.313443216E0,5.401972160E0
1.362766042E1,-1.510644975E-1,-1.126900032E0,-4.696284222E0,4.831957125E0
1.363768742E1,-8.597161174E-2,-1.366666206E0,-4.013087944E0,4.240288019E0
1.364771342E1,-3.761787187E-1,-1.398839633E0,-3.563300820E0,3.846475722E0
1.365773942E1,-4.920197352E-1,-1.381563157E0,-3.384016417E0,3.688138730E0
1.366776542E1,-4.140164897E-2,-1.617313245E0,-2.733134192E0,3.176072848E0
1.367779242E1,1.205759383E0,-1.721905753E0,5.095626247E-1,2.162976926E0
1.368781842E1,1.402225171E0,-8.705098582E-1,-2.683831054E-1,1.672140046E0
1.369784442E1,9.244902568E-1,-1.030908705E-1,-1.498167747E0,1.763467199E0
1.370787042E1,6.874580944E-1,-4.239816070E-2,-1.405885820E0,1.565538622E0
1.371789742E1,3.441155116E-1,-1.402603047E-1,-1.528566837E0,1.573087732E0
1.372792342E1,2.690447178E-1,-1.708895552E-1,-1.586997478E0,1.618687522E0
1.373794942E1,2.419392919E-1,1.531729303E-2,-1.649017140E0,1.666741362E0
1.374797542E1,9.006263810E-1,2.050186566E-1,-1.595366013E0,1.843462298E0
1.375800142E1,1.805050236E0,5.971385662E-1,-1.272613742E0,2.287865066E0
1.376802842E1,1.624394223E0,3.100253673E-1,-1.287055196E0,2.095538927E0
1.377805442E1,1.054331335E0,-6.734228765E-1,-1.964679662E0,2.329179922E0
1.378808042E1,7.826610710E-1,-1.073926524E0,-2.666458392E0,2.979240991E0
1.379810642E1,7.021377669E-2,-4.005317871E-1,-2.318644370E0,2.354032158E0
1.380813342E1,-7.551191504E-1,7.444615035E-1,-1.077185177E0,1.511540859E0
1.381815942E1,-1.082133164E0,1.356432848E0,6.912917483E-1,1.867834719E0
1.382818542E1,-3.449126333E-2,1.730925229E0,1.263437707E0,2.143260749E0
1.383821142E1,1.707507387E-1,1.663803287E0,1.833460541E0,2.481728178E0
1.384823842E1,3.879387484E-1,1.000805923E0,2.121799609E0,2.377844097E0
1.385826442E1,3.720455412E-1,1.786463253E-1,2.096325629E0,2.136565828E0
1.386829042E1,2.742226466E-1,-2.942114264E-1,2.532834311E0,2.564567814E0
1.387831642E1,5.244940015E-1,-9.344742313E-2,3.167465370E0,3.211956296E0
1.388834242E1,4.141698329E-1,4.931394039E-1,3.741822161E0,3.796835025E0
1.389836942E1,-2.084645304E-1,1.032657680E0,3.935453292E0,4.074019141E0
1.390839542E1,-1.092973975E0,1.211512970E0,4.426201331E0,4.717373635E0
1.391842142E1,-1.032943243E0,1.071617020E0,5.449127271E0,5.648745241E0
1.392844742E1,-6.768548997E-1,7.129048846E-1,6.486791117E0,6.560855503E0
1.393847442E1,-1.971370485E-1,5.192886639E-1,7.064424688E0,7.086227480E0
1.394850042E1,4.740979461E-1,1.139666258E0,6.081752150E0,6.205748727E0
1.395852642E1,6.687989715E-1,7.886595102E-1,6.019526666E0,6.107698189E0
1.396855242E1,6.260338980E-1,3.364951278E-1,6.976335799E0,7.012446691E0
1.397857942E1,5.367600347E-1,2.674472585E-1,8.013288624E0,8.035697477E0
1.398860542E1,-4.425736697E-1,1.573148055E-1,8.548203022E0,8.561097728E0
1.399863142E1,-1.505292580E0,2.908532242E-1,8.083354640E0,8.227461552E0
1.400865742E1,-2.211368428E0,6.823884854E-1,6.614972025E0,7.008113816E0
1.401868342E1,-2.212485100E0,1.210708686E0,5.525958515E0,6.074300235E0
1.402871042E1,-1.576240648E0,1.543971911E0,5.519728307E0,5.944391005E0
1.403873642E1,-9.194396511E-1,1.616374767E0,5.659942199E0,5.957598707E0
1.404876242E1,-4.477515619E-1,1.505145376E0,5.625228449E0,5.840303003E0
1.405878842E1,-1.301882565E-2,1.476017617E0,5.644877433E0,5.834675546E0
1.406881542E1,-2.777754879E-1,1.247427153E0,5.681847623E0,5.823798257E0
1.407884142E1,-2.010979524E-1,1.177242878E0,5.485620913E0,5.614123082E0
1.408886742E1,1.224442041E-1,1.054137573E0,4.579409491E0,4.700764820E0
1.409889342E1,-4.350759678E-2,1.422804154E0,3.540483230E0,3.815925324E0
1.410892042E1,2.780583470E-1,1.714334632E0,2.593486310E0,3.121286740E0
1.411894642E1,1.448516846E-1,1.326334159E0,1.624940645E0,2.102516685E0
1.412897242E1,2.598177750E-1,1.043375407E0,6.611920363E-1,1.262264800E0
1.413899842E1,5.025019291E-1,6.067498539E-1,-3.667572463E-1,8.690019859E-1
1.414902442E1,3.507377757E-1,2.476545797E-1,-1.904632850E0,1.952428250E0
1.415905142E1,6.335954442E-1,-4.125572439E-1,-2.925971271E0,3.022077852E0
1.416907742E1,1.474868055E0,-1.836318953E0,-2.788514925E0,3.650084734E0
1.417910342E1,8.359080094E-1,-2.682587059E0,-3.196216130E0,4.255680096E0
1.418912942E1,-5.167531651E-3,-4.531166746E0,-4.977717143E0,6.731208416E0
1.419915642E1,4.729059181E-1,-2.875082953E0,-6.285997732E0,6.928456500E0
1.420918242E1,1.091278575E0,-1.412569626E0,-6.593338496E0,6.830692088E0
1.421920842E1,1.400273370E0,-5.515962480E-1,-5.896286071E0,6.085327712E0
1.422923442E1,2.055162254E0,-1.526616279E-1,-5.123879993E0,5.522784049E0
1.423926142E1,2.177107399E0,-3.167271901E-1,-4.810908360E0,5.290080527E0
1.424928742E1,1.927244326E0,-5.648120518E-1,-5.022120314E0,5.408786906E0
1.425931342E1,1.470709515E0,-7.325599346E-1,-5.435640083E0,5.678539746E0
1.426933942E1,7.248355434E-1,-8.371607754E-1,-5.616886227E0,5.725000927E0
1.427936542E1,-4.235834481E-2,-8.523599546E-1,-5.676915497E0,5.740703901E0
1.428939242E1,-3.880977561E-1,-7.168965594E-1,-5.660086625E0,5.718491160E0
1.429941842E1,-5.430122796E-1,-6.207043071E-1,-5.258035585E0,5.322318516E0
1.430944442E1,-5.186350914E-1,-5.345118899E-1,-4.638825388E0,4.698232252E0
1.431947042E1,-1.081474329E-1,-3.228657432E-1,-4.405481138E0,4.418619944E0
1.432949742E1,2.371205284E-1,-2.913756364E-1,-4.285878680E0,4.302311236E0
1.433952342E1,1.986195735E-1,-5.304357959E-1,-3.794745310E0,3.836783006E0
1.434954942E1,-1.792334223E-1,-8.097246893E-1,-3.569201245E0,3.664283862E0
1.435957542E1,-3.463222143E-1,-8.521065509E-1,-3.640350750E0,3.754754084E0
1.436960242E1,-4.769249653E-1,-1.002423263E0,-3.638836906E0,3.804397961E0
1.437962842E1,-7.082982288E-1,-1.051584751E0,-3.231859002E0,3.471660911E0
1.438965442E1,-7.643510268E-1,-7.695057128E-1,-2.975681959E0,3.167184026E0
1.439968042E1,-7.069577546E-1,-5.835654245E-1,-3.069718051E0,3.203670830E0
1.440970642E1,-8.560043049E-1,-6.682396853E-1,-2.807701979E0,3.010394999E0
1.441973342E1,-1.110348830E0,-7.461662592E-1,-2.312303649E0,2.671401650E0
1.442975942E1,-1.057189235E0,-5.251119060E-1,-2.178305347E0,2.477580630E0
1.443978542E1,-9.150151362E-1,-1.811471064E-1,-2.536665407E0,2.702727948E0
1.444981142E1,-6.528333684E-1,-4.481963888E-3,-3.391672177E0,3.453932780E0
1.445983842E1,-6.440303122E-1,-1.118627172E-2,-3.885444396E0,3.938474111E0
1.446986442E1,-8.225776733E-1,-7.060914896E-2,-4.234979253E0,4.314703808E0
1.447989042E1,-9.603811242E-1,-2.471531079E-1,-4.602959152E0,4.708571919E0
1.448991642E1,-8.666748156E-1,-4.142841825E-1,-4.932318192E0,5.024989489E0
1.449994342E1,-6.556090417E-1,-6.165840666E-1,-5.102863346E0,5.181622666E0
1.450996942E1,-4.547255725E-1,-5.794441242E-1,-4.625333523E0,4.683614100E0
1.451999542E1,-3.756956290E-1,-4.000205943E-1,-3.585845929E0,3.627596272E0
1.453002142E1,-5.405275054E-1,-1.838004266E-1,-2.559886454E0,2.622779297E0
1.454004742E1,-4.586163098E-1,2.516559756E-1,-1.580740373E0,1.665052484E0
1.455007442E1,2.188799199E-2,6.854135424E-1,-1.952636737E-1,7.130208346E-1
1.456010042E1,6.693779920E-1,9.775880181E-1,1.638831875E0,2.022254965E0
1.457012642E1,1.126218904E0,1.192215697E0,3.482255487E0,3.849136340E0
1.458015242E1,1.366784028E0,1.312530199E0,4.688553618E0,5.057011878E0
1.459017942E1,1.070677519E0,1.422651542E0,4.218752645E0,4.579100527E0
1.460020542E1,3.921873353E-1,1.455286314E0,3.434823459E0,3.750957392E0
1.461023154E1,-5.563040241E-1,1.362829848E0,3.136058806E0,3.464338926E0
1.462025754E1,-1.146886473E0,1.250083982E0,3.197182674E0,3.619397132E0
1.463028454E1,-1.206323420E0,9.636005281E-1,3.991769580E0,4.279949363E0
1.464031054E1,-8.803175392E-1,7.395829522E-1,5.576179081E0,5.693480048E0
1.465033654E1,-5.090924355E-1,8.896780544E-1,7.567513860E0,7.636620206E0
1.466036254E1,-7.320364991E-2,1.204935145E0,8.766001865E0,8.848729636E0
1.467038854E1,1.576396184E-1,1.352100061E0,9.752246466E0,9.846793182E0
1.468041554E1,1.741814280E-1,1.592660068E0,1.086280521E1,1.098032068E1
1.469044154E1,2.523432975E-1,1.636124176E0,1.179811881E1,1.191369745E1
1.470046754E1,-4.669926289E-2,1.466459905E0,1.173276448E1,1.182414681E1
1.471049354E1,-1.256186429E0,1.733379014E0,1.196414582E1,1.215415124E1
1.472052054E1,-1.631368197E0,1.540247089E0,1.207930323E1,1.228589800E1
1.473054654E1,-1.618778411E0,7.520780135E-1,1.139812131E1,1.153703750E1
1.474057254E1,-1.444123102E0,2.525897028E-1,1.015612125E1,1.026138840E1
1.475059854E1,-1.148128129E0,1.398829401E-2,9.128505846E0,9.200435471E0
1.476062554E1,-6.773414612E-1,8.045695648E-3,8.311396050E0,8.338954401E0
1.477065154E1,-3.257879989E-1,-2.149516873E-2,7.508263439E0,7.515358922E0
1.478067754E1,8.552047164E-2,-1.416460948E-1,6.665146397E0,6.667199852E0
1.479070354E1,4.721854681E-1,-2.294467887E-1,5.437018272E0,5.462304700E0
1.480072954E1,5.894985577E-1,-4.232849112E-1,4.045235935E0,4.109819028E0
1.481075654E1,7.860205887E-1,-5.020211783E-1,2.844906642E0,2.993885007E0
1.482078254E1,8.771818967E-1,-4.935533137E-1,1.977881505E0,2.219247215E0
1.483080854E1,6.694255006E-1,-4.008068621E-1,1.392837174E0,1.596487405E0
1.484083454E1,3.719767633E-1,-1.379607775E-1,6.979259992E-1,8.028079402E-1
1.485086154E1,1.825514979E-1,2.647717919E-2,-3.180522788E-1,3.676728742E-1
1.486088754E1,1.064849142E-1,6.992736362E-2,-1.302180188E0,1.308396773E0
1.487091354E1,2.588807587E-1,2.021037100E-2,-2.405931605E0,2.419903840E0
1.488093954E1,2.910620429E-1,-1.006254285E-1,-3.532566685E0,3.545965309E0
1.489096654E1,4.328751123E-1,-8.205364835E-2,-4.538133411E0,4.559470202E0
1.490099254E1,5.459799243E-1,-9.241482312E-2,-5.390872630E0,5.419238166E0
1.491101854E1,4.662435275E-1,-1.667022179E-1,-5.977567046E0,5.998039717E0
1.492104454E1,1.582196804E-1,-2.333855828E-2,-6.073720999E0,6.075826276E0
1.493107054E1,2.207510106E-1,-4.889508423E-2,-6.162766492E0,6.166912727E0
1.494109754E1,3.433987161E-1,6.696199388E-3,-6.459609166E0,6.468733886E0
1.495112354E1,4.223860114E-1,3.854325221E-1,-7.004475524E0,7.027776714E0
1.496114954E1,6.360549293E-1,8.039571420E-1,-7.639965540E0,7.708436054E0
1.497117554E1,6.912708445E-1,8.600702394E-1,-7.802557311E0,7.880195225E0
1.498120254E1,5.069297697E-1,6.541272110E-1,-7.420997254E0,7.466998087E0
1.499122854E1,5.492556442E-2,6.448059453E-1,-7.058099754E0,7.087705106E0
1.500125454E1,-3.656381257E-1,1.048873398E0,-7.082918261E0,7.169487969E0
1.501128054E1,-6.679006930E-1,1.022401225E0,-7.059654529E0,7.164504007E0
1.502130754E1,-4.423208872E-1,7.248821019E-1,-7.209570122E0,7.259407908E0
1.503133354E1,-4.271320502E-1,7.388241298E-1,-7.410565821E0,7.459543463E0
1.504135954E1,-5.949999836E-1,8.739979416E-1,-7.555368608E0,7.628990247E0
1.505138554E1,-6.920362450E-1,8.704492664E-1,-7.523899478E0,7.605633402E0
1.506141154E1,-6.740111795E-1,7.470832488E-1,-7.497957721E0,7.565169822E0
1.507143854E1,-4.047412342E-1,6.980366577E-1,-7.333665580E0,7.377921216E0
1.508146454E1,-3.194004274E-1,6.013278770E-1,-6.630405750E0,6.665275108E0
1.509149054E1,-2.922632072E-2,3.444994544E-1,-5.500339524E0,5.511194873E0
1.510151654E1,2.797704482E-1,1.883874577E-1,-4.530638450E0,4.543175773E0
1.511154354E1,4.965333106E-1,4.096945933E-1,-4.372978220E0,4.420105598E0
1.512156954E1,2.501087840E-1,5.018800411E-1,-4.534830319E0,4.569368009E0
1.513159554E1,-2.466131541E-1,2.629348343E-1,-4.622671870E0,4.636706589E0
1.514162154E1,-4.676950988E-1,3.291504585E-2,-4.280670565E0,4.306270149E0
1.515164854E1,-5.927688689E-1,-3.786551607E-1,-3.636374059E0,3.703777930E0
1.516167454E1,-4.922554511E-1,-6.980216011E-1,-2.820405055E0,2.946902485E0
1.517170054E1,-2.863467203E-1,-8.315115611E-1,-2.009776313E0,2.193765427E0
1.518172654E1,1.606315655E-1,-5.495438388E-1,-1.451516322E0,1.560352705E0
1.519175254E1,6.687888850E-1,7.403446388E-3,-1.037896566E0,1.234731819E0
1.520177954E1,8.204232667E-1,4.273353506E-1,-5.352441806E-1,1.068735782E0
1.521180554E1,7.725513082E-1,6.689778963E-1,5.684932029E-1,1.169423564E0
1.522183154E1,4.318444309E-1,5.992527001E-1,1.893805561E0,2.032755006E0
1.523185754E1,1.489486551E-1,4.567250644E-1,2.364614010E0,2.412919995E0
1.524188454E1,2.445754177E-2,3.668069841E-1,2.531996990E0,2.558545347E0
1.525191054E1,-1.926920682E-1,1.324686158E-1,2.787626733E0,2.797416839E0
1.526193654E1,-1.500670995E-1,-1.668273849E-1,2.974622444E0,2.983073951E0
1.527196254E1,1.207052056E-1,-4.623387204E-1,3.239666204E0,3.274715859E0
1.528198954E1,3.532283241E-1,-6.630089124E-1,4.110538225E0,4.178621251E0
1.529201554E1,6.544190602E-1,-5.548083063E-1,5.547739393E0,5.613687642E0
1.530204154E1,8.219613768E-1,-6.029305257E-2,7.081623688E0,7.129421422E0
1.531206754E1,6.501709849E-1,3.831342375E-1,8.808805237E0,8.841072552E0
1.532209354E1,1.752828607E-1,4.519492049E-1,1.011993284E1,1.013153605E1
1.533212054E1,-5.321939257E-2,4.202847049E-1,1.064169743E1,1.065012656E1
1.534214654E1,-3.440318964E-1,7.092007466E-2,1.111266843E1,1.111821871E1
1.535217254E1,-8.490960389E-1,-4.141981919E-1,1.145597717E1,1.149486569E1
1.536219854E1,-1.075672868E0,-5.981420215E-1,1.135546704E1,1.142197346E1
1.537222554E1,-8.253966160E-1,-5.085577807E-1,1.102005555E1,1.106261881E1
1.538225154E1,-3.580774201E-1,-2.071631961E-1,1.076564554E1,1.077359085E1
1.539227754E1,-1.266467624E-2,1.757293687E-1,1.054589782E1,1.054736943E1
1.540230354E1,1.684137710E-1,3.312973186E-1,1.026383983E1,1.027056616E1
1.541233054E1,1.680143696E-1,5.114503252E-1,9.744621112E0,9.759480052E0
1.542235654E1,7.184571630E-2,6.457086823E-1,8.953734909E0,8.977275218E0
1.543238254E1,8.712567852E-2,6.802193145E-1,7.903127081E0,7.932824646E0
1.544240854E1,-3.168848273E-2,7.889473394E-1,6.895913780E0,6.940970316E0
1.545243454E1,-2.034880383E-2,9.459672260E-1,6.021618215E0,6.095502768E0
1.546246154E1,2.620073014E-1,1.059286704E0,4.862702411E0,4.983634305E0
1.547248754E1,1.722622805E-1,1.085074460E0,3.187546463E0,3.371574310E0
1.548251354E1,-2.166924034E-1,1.066182179E0,1.343642210E0,1.728893989E0
1.549253954E1,-1.037776259E-1,8.765345369E-1,-1.431866169E-2,8.827726854E-1
1.550256654E1,-2.414676043E-1,3.034589441E-1,-1.037452177E0,1.107565328E0
1.551259254E1,-5.139932793E-1,-1.404145981E-1,-1.757944336E0,1.836919606E0
1.552261854E1,-8.896440674E-1,-2.728412419E-1,-2.451189054E0,2.621876559E0
1.553264454E1,-1.130072220E0,-3.970535709E-1,-2.645609559E0,2.904128906E0
1.554267154E1,-1.262360065E0,-2.564557356E-1,-3.046493495E0,3.307634365E0
1.555269754E1,-9.997877763E-1,1.453512196E-1,-4.115052275E0,4.237258288E0
1.556272354E1,-7.700974511E-1,3.214039028E-1,-4.803469532E0,4.875414864E0
1.557274954E1,-4.916203704E-1,3.134736165E-1,-5.209007267E0,5.241537275E0
1.558277554E1,-2.639445571E-1,3.329970311E-1,-5.838343672E0,5.853786004E0
1.559280254E1,-7.541292898E-2,5.385080598E-1,-6.598711503E0,6.621077823E0
1.560282854E1,1.480625187E-1,6.619467656E-1,-6.943621797E0,6.976673970E0
1.561285417E1,2.966283364E-1,6.247111116E-1,-6.977403501E0,7.011591257E0
1.562288017E1,4.322035962E-1,6.506239249E-1,-6.925674938E0,6.969582827E0
1.563290717E1,5.306052189E-1,7.674519514E-1,-6.915255784E0,6.977914227E0
1.564293317E1,5.668006533E-1,7.044148006E-1,-6.779279954E0,6.839305512E0
1.565295917E1,4.312238221E-1,4.701683979E-1,-6.544528863E0,6.575550954E0
1.566298517E1,3.120183177E-1,3.052253149E-1,-6.518336846E0,6.532934498E0
1.567301217E1,1.593699008E-1,1.143211790E-1,-6.403945427E0,6.406948191E0
1.568303817E1,-1.356634065E-1,-4.408161063E-2,-6.350560933E0,6.352162774E0
1.569306417E1,-1.683219697E-1,-1.113070855E-1,-6.295060916E0,6.298294490E0
1.570309017E1,-1.195764737E-1,-2.447662745E-1,-5.949008076E0,5.955241905E0
1.571311617E1,-1.034943466E-1,-3.516816625E-1,-5.735032727E0,5.746737462E0
1.572314317E1,1.793309429E-1,-4.397498665E-1,-5.783441826E0,5.802907795E0
1.573316917E1,4.496166044E-1,-6.079694369E-1,-5.781294728E0,5.830536052E0
1.574319517E1,5.035031551E-1,-7.504233246E-1,-5.612757508E0,5.685041551E0
1.575322117E1,5.441380148E-1,-8.769762209E-1,-5.480217501E0,5.576554252E0
1.576324817E1,5.070338501E-1,-9.561690094E-1,-5.169475411E0,5.281554556E0
1.577327417E1,1.931004231E-1,-1.049727237E0,-4.766629735E0,4.884667243E0
1.578330017E1,1.224350130E-1,-9.935960866E-1,-4.434407313E0,4.546008330E0
1.579332617E1,3.320366259E-1,-8.531437008E-1,-4.144198306E0,4.244111461E0
1.580335217E1,4.282972907E-1,-9.087122031E-1,-3.802929073E0,3.933378442E0
1.581337917E1,3.662655685E-1,-1.052825969E0,-3.464746585E0,3.639651341E0
1.582340517E1,3.282645871E-1,-1.001225095E0,-3.551858404E0,3.704849180E0
1.583343117E1,4.646014101E-1,-8.048325433E-1,-3.496648993E0,3.618033178E0
1.584345717E1,6.932384326E-1,-6.640712053E-1,-3.107288166E0,3.252200768E0
1.585348417E1,8.658496273E-1,-6.105889895E-1,-2.796157236E0,2.990152133E0
1.586351017E1,9.582705718E-1,-5.168103216E-1,-2.467350174E0,2.696885662E0
1.587353617E1,6.973132841E-1,-4.878964249E-1,-1.863426352E0,2.048571821E0
1.588356217E1,5.648519225E-1,-5.660100366E-1,-9.265655798E-1,1.223907198E0
1.589358917E1,4.690918159E-1,-7.455827071E-1,2.785677856E-1,9.238726731E-1
1.590361517E1,2.813009752E-1,-5.019206793E-1,9.672540146E-1,1.125448771E0
1.591364117E1,2.483127752E-1,-2.917979881E-2,1.423816307E0,1.445601457E0
1.592366717E1,4.912769561E-1,3.915321913E-1,2.181283334E0,2.269944380E0
1.593369317E1,5.762012950E-1,6.864113697E-1,3.228230220E0,3.350319217E0
1.594372017E1,5.568871377E-1,5.316928010E-1,4.249430062E0,4.318619729E0
1.595374617E1,5.958309095E-1,-6.944898829E-2,5.233223510E0,5.267491428E0
1.596377217E1,5.378378592E-1,-5.737925345E-1,6.531377891E0,6.578556421E0
1.597379817E1,3.948398881E-1,-4.466062385E-1,8.141816856E0,8.163610561E0
1.598382517E1,6.147375890E-1,4.886322239E-1,1.000434040E1,1.003511288E1
1.599385117E1,8.215813809E-1,1.474933397E0,1.227958790E1,1.239510805E1
1.600387717E1,9.073280941E-1,2.081337023E0,1.411972304E1,1.430111138E1
1.601390317E1,9.441545892E-1,2.246588400E0,1.514187715E1,1.533672165E1
1.602393017E1,8.015142484E-1,2.272478994E0,1.494330921E1,1.513634950E1
1.603395617E1,5.092033864E-1,2.072872886E0,1.398326306E1,1.414523722E1
1.604398217E1,-2.894946876E-2,1.572142334E0,1.281664764E1,1.291274279E1
1.605400817E1,-7.618446178E-1,9.358187985E-1,1.136811223E1,1.143197882E1
1.606403417E1,-1.487062277E0,2.064586066E-1,9.764094679E0,9.878842254E0
1.607406117E1,-2.226449566E0,-4.535413286E-1,8.253051948E0,8.560119384E0
1.608408717E1,-2.743485225E0,-8.131848523E-1,6.801926805E0,7.379308168E0
1.609411317E1,-3.005939839E0,-1.017332785E0,5.567597122E0,6.408492648E0
1.610413917E1,-2.778014495E0,-9.494010034E-1,4.564898456E0,5.427432608E0
1.611416617E1,-2.281321008E0,-5.695595158E-1,3.639943784E0,4.333360628E0
1.612419217E1,-1.572755707E0,-3.670874678E-2,2.786713398E0,3.200106187E0
1.613421817E1,-6.693743375E-1,5.707318094E-1,2.083456492E0,2.261545436E0
1.614424417E1,1.004990556E-1,1.124357005E0,1.601962842E0,1.959735615E0
1.615427117E1,5.213719538E-1,1.564892079E0,1.057005851E0,1.959075625E0
1.616429717E1,8.716994742E-1,1.712266472E0,1.985018617E-1,1.931610580E0
1.617432317E1,1.084870392E0,1.536710546E0,-8.268933570E-1,2.054793346E0
1.618434917E1,8.714317448E-1,1.071698077E0,-1.996124818E0,2.427435755E0
1.619437517E1,4.968068507E-1,7.637992689E-1,-3.161383681E0,3.290068867E0
1.620440217E1,2.207440488E-1,6.706287114E-1,-4.249659857E0,4.307908971E0
1.621442817E1,-2.561166337E-2,4.866738452E-1,-5.066818185E0,5.090201755E0
1.622445417E1,-2.116903480E-1,2.635204147E-1,-5.677165757E0,5.687219606E0
1.623448017E1,-1.333701468E-1,1.275252883E-1,-6.097300481E0,6.100092086E0
1.624450717E1,8.174931904E-2,7.100266658E-2,-6.340677384E0,6.341601850E0
1.625453317E1,6.212250017E-2,7.022286728E-3,-6.288537762E0,6.288848520E0
1.626455917E1,1.437055938E-1,3.689640585E-2,-6.217308735E0,6.219078754E0
1.627458517E1,2.837471944E-1,8.254952878E-3,-6.359818829E0,6.366150812E0
1.628461117E1,3.217146092E-1,-1.102948594E-1,-6.766483907E0,6.775025440E0
1.629463817E1,3.932365085E-1,-1.420306589E-1,-7.089243194E0,7.101561570E0
1.630466417E1,4.885081533E-1,-1.550044975E-1,-7.243862872E0,7.261970526E0
1.631469017E1,5.069435837E-1,-1.414553660E-1,-6.904960592E0,6.924989689E0
1.632471617E1,5.767696443E-1,-2.222949496E-1,-6.521977907E0,6.551204018E0
1.633474317E1,6.620843945E-1,-2.433238029E-1,-6.297308586E0,6.336691380E0
1.634476917E1,4.412342918E-1,-1.863083340E-1,-6.170500605E0,6.189061012E0
