"Time (s)","Linear Acceleration x (m/s^2)","Linear Acceleration y (m/s^2)","Linear Acceleration z (m/s^2)","Absolute acceleration (m/s^2)"
2.175916685E-3,9.995563728E-1,-2.626671013E0,1.101059943E0,3.018417889E0
1.220291667E-2,9.553797814E-1,-1.753126815E0,6.625528295E-1,2.103611278E0
2.222891664E-2,5.445459312E-1,-1.109411522E0,1.840411858E-1,1.249478032E0
3.225591662E-2,6.303415418E-2,-1.428287673E-1,8.500937931E-2,1.777637644E-1
4.228191660E-2,-6.099675035E-1,7.057197529E-1,9.296495475E-2,9.374130401E-1
5.230891658E-2,-9.538665220E-1,1.403086174E0,-1.691877962E-1,1.705032745E0
6.233591668E-2,-1.028749474E0,2.165196474E0,-5.569706798E-1,2.461019624E0
7.236191665E-2,-1.024338042E0,2.723842381E0,-3.225615053E-1,2.927905679E0
8.238891663E-2,-7.332130685E-1,3.054169135E0,-2.557162821E-1,3.151339608E0
9.241591662E-2,5.932789654E-2,3.305036321E0,-1.998519838E-1,3.311604702E0
1.024419166E-1,3.769568369E-1,3.231945541E0,-4.626214698E-2,3.254183250E0
1.124689167E-1,4.755987802E-1,3.259371321E0,-3.384181309E-1,3.311226727E0
1.224949167E-1,4.088753253E-1,3.608079382E0,-4.568743877E-1,3.659801916E0
1.325219166E-1,4.169146621E-1,4.360292101E0,-7.252440445E-1,4.439813506E0
1.425489166E-1,5.913385668E-1,5.195543468E0,-9.018451600E-1,5.306286641E0
1.525749166E-1,4.146365869E-1,5.519964534E0,-3.834032460E-1,5.548777343E0
1.626019166E-1,8.065064549E-2,5.426883293E0,-2.046455312E-1,5.431339300E0
1.726294999E-1,2.081328106E-1,5.606329079E0,-4.480019689E-2,5.610370047E0
1.826555000E-1,2.012260795E-2,5.737364012E0,-9.373554468E-2,5.738164957E0
1.926825000E-1,1.381697059E-1,5.738261560E0,-6.354278885E-2,5.740276499E0
2.027095000E-1,3.825853667E-1,5.603842843E0,4.374956918E-1,5.633899950E0
2.127355000E-1,3.265731338E-1,5.166870477E0,8.286603856E-1,5.243079111E0
2.227624999E-1,5.022231996E-1,5.045688102E0,7.694199049E-1,5.128664890E0
2.327884999E-1,4.983295387E-1,5.641370857E0,4.337160516E-1,5.679921398E0
2.428155000E-1,5.090840301E-1,8.150571892E0,3.120309623E-1,8.172414089E0
2.528425000E-1,1.434133427E0,1.130987163E1,4.821895424E-1,1.141062845E1
2.628685000E-1,1.591891890E0,1.135834270E1,3.437613896E-1,1.147450394E1
2.728954999E-1,-1.910083625E-1,5.603976159E0,6.585075796E-1,5.645765247E0
2.829224999E-1,-1.699230105E-1,1.783235883E0,6.171408677E-1,1.894641626E0
2.929485000E-1,6.026716402E-1,1.778631785E0,3.828956345E-1,1.916599384E0
3.029755000E-1,2.090762588E-1,1.204752127E0,5.821136340E-1,1.354251399E0
3.130025000E-1,-3.745296577E-1,2.134911990E-1,3.152608180E-1,5.340789641E-1
3.230285000E-1,-2.891885220E-1,-5.186474437E-1,1.264823278E-1,6.071432708E-1
3.330554999E-1,3.367753556E-1,-1.052711656E0,5.398804013E-1,1.230077363E0
3.430814999E-1,6.395979765E-1,-1.636237466E0,7.416397834E-1,1.906931615E0
3.531085000E-1,9.366013022E-1,-2.266371431E0,4.174386092E-1,2.487552302E0
3.631355000E-1,1.133223430E0,-3.312134841E0,4.111832213E-1,3.524699163E0
3.731615000E-1,1.228910337E0,-4.326514490E0,5.801899731E-1,4.534927635E0
3.831885000E-1,1.361472271E0,-4.945131780E0,4.725006330E-1,5.150843806E0
3.932154999E-1,1.338424008E0,-5.678916414E0,3.788013411E-1,5.846790651E0
4.032415000E-1,1.380036303E0,-6.188702402E0,1.253444231E-1,6.341943617E0
4.132685000E-1,1.078059628E0,-6.512947467E0,1.067982244E-1,6.602431607E0
4.232955000E-1,2.583244327E-1,-7.119179184E0,5.452253777E-1,7.144698348E0
4.333215000E-1,-1.603543344E-1,-7.163018099E0,6.017755544E-1,7.190040029E0
4.433484999E-1,-7.007116127E-1,-6.617067667E0,5.507357572E-1,6.676817441E0
4.533744999E-1,-1.257934307E0,-5.472482219E0,-1.796182422E-1,5.618071117E0
4.634015000E-1,-1.747908175E0,-4.343898262E0,-8.969856852E-1,4.767517008E0
4.734285000E-1,-2.014486537E0,-3.598235010E0,-1.346535412E0,4.338042048E0
4.834545000E-1,-2.380979782E0,-2.322267305E0,-1.342921833E0,3.586841118E0
4.934815000E-1,-2.583610655E0,-4.433201033E-1,-1.096883862E0,2.841607104E0
5.035084999E-1,-2.971538915E0,1.349908671E0,-1.056786581E0,3.430611435E0
5.135344999E-1,-3.262727038E0,2.962832118E0,-8.435485661E-1,4.487241477E0
5.235615000E-1,-3.004164039E0,4.472450468E0,-8.630654025E-1,5.456436259E0
5.335885000E-1,-2.768157552E0,4.602006640E0,-1.143631182E0,5.490815388E0
5.436145000E-1,-2.558452132E0,3.612061336E0,-1.146885742E0,4.572527891E0
5.536415000E-1,-1.985316240E0,2.788392134E0,-5.284655400E-1,3.463507917E0
5.636674999E-1,-1.618356096E0,1.570991310E0,-4.655553102E-2,2.255938289E0
5.736945000E-1,-1.433171560E0,7.442412096E-1,3.335368752E-2,1.615236257E0
5.837215000E-1,-5.399882824E-1,7.211160564E-1,-2.052716218E-2,9.011199012E-1
5.937475000E-1,-7.418978283E-2,7.839397109E-1,-2.843092032E-1,8.371961044E-1
6.037745000E-1,6.191642236E-2,8.304835474E-1,-5.917873772E-1,1.021640282E0
6.138014999E-1,-2.416889945E-2,7.865674496E-1,-8.031700337E-1,1.124435232E0
6.238274999E-1,-1.821922413E-1,7.715687567E-1,-7.293968832E-1,1.077279988E0
6.338545000E-1,-3.114870250E-1,6.966548145E-1,-5.854536732E-1,9.618254003E-1
6.438805000E-1,-3.702837020E-1,5.609368461E-1,-3.528431753E-1,7.591169025E-1
6.539075000E-1,-4.516006377E-1,3.331784409E-1,-1.293906597E-1,5.759279055E-1
6.639345000E-1,-6.980142921E-1,4.109013855E-2,-2.141020138E-2,6.995503900E-1
6.739604999E-1,-1.227493703E0,-5.689212191E-1,-4.377763581E-1,1.421991661E0
6.839874999E-1,-1.298984393E0,-8.022882736E-1,-3.881451917E-1,1.575336033E0
6.940145000E-1,-9.364842117E-1,-4.956520987E-1,1.031074254E-1,1.064567904E0
7.040405000E-1,-9.346683589E-1,-3.881200486E-1,4.967092752E-1,1.127369601E0
7.140675000E-1,-8.616223097E-1,-3.520093989E-1,9.577131128E-1,1.335484192E0
7.240945000E-1,-4.421418893E-1,8.536934853E-3,1.605124431E0,1.664928458E0
7.341204999E-1,-1.272930077E-1,2.575914842E-1,1.868952556E0,1.890909976E0
7.441475000E-1,-6.485048208E-2,9.009331405E-2,1.445118299E0,1.449375482E0
7.541735000E-1,-2.218728903E-1,-2.945628440E-1,9.891255248E-1,1.055634479E0
7.642005000E-1,-3.211421668E-1,-4.183197480E-1,5.411107651E-1,7.555955022E-1
7.742275000E-1,-2.098298918E-1,-5.141871876E-1,-9.943299852E-2,5.641843392E-1
7.842534999E-1,6.691657381E-1,-9.240518618E-1,-4.859973224E-1,1.240100006E0
7.942804999E-1,1.667707619E0,-1.952489972E0,-3.495022590E-1,2.591450872E0
8.043075000E-1,2.012381101E0,-3.175054471E0,-1.563485532E-1,3.762325539E0
8.143335000E-1,2.572183441E0,-4.179479821E0,-1.049972820E-1,4.908686551E0
8.243605000E-1,3.327445483E0,-4.374422482E0,-9.036023945E-2,5.496874609E0
8.343864999E-1,2.145308193E0,-4.231673237E0,-5.831087570E-1,4.780106845E0
8.444134999E-1,1.919822162E0,-4.702261831E0,-9.298838747E-1,5.163493728E0
8.544404999E-1,1.932723751E0,-5.860139169E0,-6.892788443E-1,6.209006160E0
8.644665000E-1,1.895513533E0,-7.460616233E0,2.410456181E-2,7.697684532E0
8.744935000E-1,2.100143130E0,-8.348087913E0,3.928959082E-1,8.617165437E0
8.845205000E-1,2.715098747E0,-8.490105087E0,5.489860144E-1,8.930567241E0
8.945464999E-1,3.466415380E0,-8.305647653E0,1.383335887E0,9.105681561E0
9.045734999E-1,4.132185202E0,-6.712165613E0,2.794202512E0,8.362756090E0
9.146005000E-1,4.292788920E0,-4.610137194E0,4.442490212E0,7.708250187E0
9.246265000E-1,3.612482336E0,-3.085101491E0,5.127939715E0,6.990253611E0
9.346535000E-1,1.768825420E0,-1.702023904E0,3.762976510E0,4.492841078E0
9.446795000E-1,-2.046870464E-1,-1.549436134E-1,2.463358864E-1,3.557888127E-1
9.547064999E-1,-1.736395007E0,2.059181777E0,-3.549342932E0,4.455685408E0
9.647334999E-1,-3.013286280E0,4.292025858E0,-5.354771336E0,7.494995413E0
9.747595000E-1,-2.991252802E0,4.810891403E0,-3.946612996E0,6.904203325E0
9.847865000E-1,-1.806757477E0,2.856487638E0,-1.878139701E0,3.866691472E0
9.948135000E-1,-7.273760855E-1,1.624976898E0,-1.080020784E0,2.082323410E0
1.004839500E0,-4.887678793E-1,1.050315467E0,2.209645253E0,2.494912577E0
1.014866500E0,-8.558730349E-1,1.816048118E0,5.167274519E0,5.543579654E0
1.024892500E0,-1.663789546E0,2.243448007E0,3.462035816E0,4.448252084E0
1.034919500E0,-3.911125951E0,3.210392704E0,-1.383793578E0,5.245799480E0
1.044946500E0,-5.330918790E0,4.479675288E0,-3.470302024E0,7.780050255E0
1.054972500E0,-4.315754152E0,4.978434012E0,-1.875871274E0,6.850505977E0
1.064999500E0,-3.096297154E0,4.789411072E0,1.091502669E-1,5.704158857E0
1.075026500E0,-2.867476018E0,3.900731356E0,5.306547010E-1,4.870289338E0
1.085052500E0,-2.720938946E0,2.943012396E0,-3.689731948E-1,4.025043097E0
1.095079500E0,-2.374280627E0,2.443656671E0,-1.250430576E0,3.629358489E0
1.105106500E0,-2.013209798E0,2.302749299E0,-1.548157787E0,3.428186190E0
1.115132500E0,-1.564545047E0,2.555844859E0,-1.850719768E0,3.522116949E0
1.125159500E0,-8.273994336E-1,3.083509294E0,-1.518264481E0,3.535215188E0
1.135185500E0,-2.991029146E-1,3.687267639E0,-1.193336023E0,3.887088378E0
1.145212500E0,-1.631607056E-1,4.241457968E0,-1.343649226E0,4.452188266E0
1.155239500E0,-1.101832361E0,4.286860428E0,-1.342015514E0,4.625171621E0
1.165265500E0,-2.085995061E0,4.470103980E0,-1.041288389E0,5.041575795E0
1.175292042E0,-1.902112408E0,5.622018912E0,-5.584183042E-1,5.961288390E0
1.185319042E0,-2.084777963E0,6.404511437E0,-2.184987545E-1,6.738828356E0
1.195345042E0,-2.517818077E0,6.265609660E0,7.480138332E-2,6.752989525E0
1.205372042E0,-2.383964493E0,6.021382572E0,-2.991083233E-1,6.483039455E0
1.215399042E0,-1.673993814E0,6.274545375E0,-5.952911384E-1,6.521238111E0
1.225425042E0,-7.925389186E-1,6.669330080E0,-6.445083220E-1,6.747108465E0
1.235452042E0,-1.747820467E-1,6.683589685E0,-4.183485456E-1,6.698950317E0
1.245478042E0,-2.156321570E-1,6.047114414E0,-5.661873534E-2,6.051222657E0
1.255505042E0,-4.236205414E-1,5.381487265E0,-4.491714120E-2,5.398321692E0
1.265532042E0,-1.629984453E-1,5.008285802E0,-2.441421573E-1,5.016881557E0
1.275558042E0,4.355321968E-1,4.551478511E0,-3.943198514E-1,4.589241013E0
1.285585042E0,6.057256410E-1,3.792356138E0,-4.576111369E-1,3.867593125E0
1.295612042E0,4.671530619E-1,2.925139797E0,-3.501536389E-1,2.982831270E0
1.305638042E0,1.854210556E-2,2.099964352E0,-2.225052667E-1,2.111800815E0
1.315665042E0,-1.454918817E-1,1.273985499E0,2.774854660E-2,1.282566537E0
1.325691042E0,-3.668661506E-1,1.920126218E-1,5.181557659E-1,6.632835119E-1
1.335718042E0,-5.325000823E-1,-9.485704064E-1,7.473395030E-1,1.319794865E0
1.345745042E0,-6.361302853E-1,-2.150878982E0,7.870878518E-1,2.377067399E0
1.355771042E0,-8.237346911E-1,-3.391292692E0,8.902935469E-1,3.601670108E0
1.365798042E0,-7.910760914E-1,-4.511799890E0,6.753697801E-1,4.630147295E0
1.375825042E0,-6.094323371E-1,-5.523436026E0,4.137782522E-1,5.572339343E0
1.385851042E0,-7.433878085E-1,-6.704553123E0,2.446369779E-1,6.750074463E0
1.395878042E0,-5.383483212E-1,-7.598446215E0,-2.634649758E-1,7.622048123E0
1.405904042E0,2.085323216E-1,-7.914778828E0,-7.043322086E-1,7.948791951E0
1.415931042E0,5.876787215E-1,-7.958791990E0,-5.646539211E-1,8.000410631E0
1.425958042E0,5.948056734E-1,-7.983113483E0,-2.032153022E-1,8.007820623E0
1.435984042E0,4.113416809E-1,-7.866474395E0,-4.845938444E-2,7.877370735E0
1.446011042E0,1.260338829E-1,-7.345772824E0,3.044838148E-1,7.353160771E0
1.456038042E0,-1.084824418E-1,-6.515611458E0,6.762901318E-1,6.551513524E0
1.466064042E0,-2.987245632E-1,-5.606712071E0,2.223982443E-1,5.619067324E0
1.476091042E0,-6.884160876E-1,-4.910398149E0,-1.980475330E-1,4.962373376E0
1.486118042E0,-1.147712538E0,-4.452336631E0,-3.722167915E-1,4.612926499E0
1.496144042E0,-1.250610670E0,-3.729271113E0,-8.878108191E-1,4.032331600E0
1.506171042E0,-1.080522768E0,-2.563241587E0,-1.355144852E0,3.094213059E0
1.516197042E0,-9.978948864E-1,-1.131970664E0,-1.467479221E0,2.104910224E0
1.526224042E0,-1.038031636E0,6.066837072E-1,-1.426155193E0,1.865340032E0
1.536251042E0,-1.147067298E0,2.471092392E0,-1.226568673E0,2.987730193E0
1.546277042E0,-1.420710559E0,4.111845662E0,-1.088887210E0,4.484570057E0
1.556304042E0,-1.950344920E0,5.184263604E0,-9.372466886E-1,5.617727813E0
1.566331042E0,-2.444431135E0,5.220656675E0,-7.208365595E-1,5.809484059E0
1.576357042E0,-2.376787036E0,4.149737374E0,-5.967791452E-1,4.819292711E0
1.586384042E0,-1.914573994E0,2.338051279E0,-3.294332993E-1,3.039836124E0
1.596410042E0,-1.750033930E0,6.505577052E-1,1.700416724E-1,1.874768854E0
1.606437042E0,-1.497087474E0,-3.249519932E-1,4.497988548E-1,1.596616332E0
1.616464042E0,-1.080569253E0,-1.046938700E0,5.718383950E-1,1.609568173E0
1.626490042E0,-8.099305113E-1,-1.827489949E0,7.262920117E-1,2.126783260E0
1.636517042E0,-3.614704862E-1,-2.543497878E0,9.230742073E-1,2.729855007E0
1.646544042E0,3.307016335E-1,-3.025789674E0,1.142279305E0,3.251087315E0
1.656570042E0,9.054942611E-1,-3.609189184E0,7.282730484E-1,3.791641868E0
1.666597042E0,1.102637961E0,-4.384389646E0,-2.888570945E-1,4.530134817E0
1.676623042E0,9.475293097E-1,-4.898633552E0,-1.348215902E0,5.168375817E0
1.686650042E0,5.440690908E-1,-5.211263123E0,-2.135709550E0,5.658138368E0
1.696677042E0,7.168934897E-2,-5.350481819E0,-2.268617932E0,5.812006743E0
1.706703042E0,1.669950172E-2,-5.335600070E0,-1.489323249E0,5.539583985E0
1.716730042E0,9.565752447E-3,-5.259779810E0,-3.286193669E-1,5.270044197E0
1.726757042E0,-8.974014223E-2,-4.911374635E0,7.392424250E-1,4.967507771E0
1.736783042E0,2.140072158E-1,-4.244804914E0,1.588742287E0,4.537429878E0
1.746810042E0,6.648947856E-1,-3.342351497E0,1.313554777E0,3.652235584E0
1.756836042E0,9.674373248E-1,-2.528553565E0,2.354240318E-1,2.717525084E0
1.766863042E0,8.001207107E-1,-1.914161473E0,-5.245082541E-1,2.139933692E0
1.776890042E0,1.537303162E-1,-1.313815563E0,-1.711246133E-1,1.333802075E0
1.786916042E0,-4.582942379E-1,-7.859710336E-1,5.392935236E-1,1.057649081E0
1.796943042E0,-4.393580300E-1,-5.246145272E-1,8.103853516E-1,1.060650885E0
1.806970042E0,4.025252491E-1,-1.014579624E-1,6.224242656E-1,7.481525651E-1
1.816996042E0,1.214787118E0,4.826081300E-1,8.328491847E-1,1.549921325E0
1.827023042E0,1.845589128E0,9.373648024E-1,8.256220262E-1,2.228565398E0
1.837049042E0,1.755222749E0,1.082733600E0,1.088852273E0,2.332105963E0
1.847076042E0,1.105186031E0,1.321332743E0,3.786414197E-1,1.763724952E0
1.857103042E0,4.843725273E-1,1.538460910E0,-4.792051966E-1,1.682592149E0
1.867129042E0,-2.749626848E-1,2.084406080E0,-7.320936191E-1,2.226278117E0
1.877156042E0,-7.686612287E-1,2.663870414E0,-4.068537967E-1,2.802244757E0
1.887183042E0,-1.125150180E0,3.060247316E0,-7.490020126E-2,3.261393353E0
1.897209042E0,-1.321611071E0,3.431388804E0,-4.455763976E-1,3.704000982E0
1.907236042E0,-1.373162170E0,3.749724673E0,-7.990911622E-1,4.072414045E0
1.917262042E0,-1.284802263E0,4.001723295E0,-5.953741689E-1,4.244876511E0
1.927289042E0,-1.485071154E0,4.341076981E0,-9.079031678E-1,4.677036866E0
1.937316042E0,-1.872612620E0,4.673475988E0,-1.198674531E0,5.175410753E0
1.947342042E0,-2.225852273E0,4.966102819E0,-1.000183633E0,5.533259695E0
1.957369042E0,-2.562420930E0,5.329498501E0,-9.041982257E-1,5.982234509E0
1.967396042E0,-2.718348922E0,5.983161077E0,-1.248019330E0,6.689184524E0
1.977422042E0,-2.601633235E0,6.861438596E0,-1.728659141E0,7.538971914E0
1.987449042E0,-2.516604487E0,7.780773509E0,-1.958104907E0,8.408799520E0
1.997476042E0,-2.500495993E0,8.643559999E0,-1.907478690E0,9.197939151E0
2.007502042E0,-2.534309271E0,9.495929090E0,-1.806377846E0,9.992917176E0
2.017529042E0,-2.452461993E0,1.011923117E1,-1.535732453E0,1.052482225E1
2.027555042E0,-2.347543064E0,1.048851558E1,-1.140721753E0,1.080838395E1
2.037582042E0,-2.116838247E0,1.067451434E1,-8.759115891E-1,1.091757673E1
2.047609042E0,-1.964928753E0,1.058148163E1,-2.853264360E-1,1.076615575E1
2.057635042E0,-1.688181206E0,1.024852012E1,-2.696026884E-2,1.038666681E1
2.067662042E0,-1.448797659E0,9.667967623E0,-4.816790074E-3,9.775921226E0
2.077689042E0,-1.140572796E0,8.939429111E0,1.259478557E-1,9.012777707E0
2.087715042E0,-9.876783389E-1,8.135115947E0,3.742768387E-1,8.203395829E0
2.097742042E0,-9.317918211E-1,7.357107652E0,4.201924650E-1,7.427774277E0
2.107768042E0,-8.685164693E-1,6.582550383E0,6.741300973E-1,6.673735220E0
2.117795042E0,-8.174645756E-1,5.768556569E0,8.356981675E-1,5.885820643E0
2.127822042E0,-8.804509288E-1,5.003933135E0,4.558372378E-1,5.101208508E0
2.137848042E0,-1.091249193E0,4.314454608E0,2.613296092E-1,4.457985703E0
2.147875042E0,-1.581690545E0,2.860787680E0,1.681776166E-1,3.273245307E0
2.157902042E0,-2.130467814E0,6.976710606E-1,8.261881828E-2,2.243315378E0
2.167928042E0,-2.588737786E0,-1.609229761E0,-6.449018396E-2,3.048826452E0
2.177955792E0,-2.522480354E0,-3.849720247E0,1.062415695E-1,4.603752859E0
2.187981792E0,-2.288597867E0,-5.957981213E0,8.016988011E-1,6.432568795E0
2.198008792E0,-2.050367391E0,-8.012089360E0,1.397604994E0,8.387543268E0
2.208035792E0,-1.538127911E0,-1.026176173E1,1.390110033E0,1.046909725E1
2.218061792E0,-6.356981760E-1,-1.237311996E1,9.780777955E-1,1.242798640E1
2.228088792E0,4.347530553E-1,-1.406190343E1,3.557223443E-1,1.407311894E1
2.238115792E0,1.405214268E0,-1.499942728E1,-4.004044640E-1,1.507042699E1
2.248141792E0,1.945745793E0,-1.508348451E1,-8.632291245E-1,1.523294444E1
2.258168792E0,1.815060523E0,-1.417047921E1,-8.268302071E-1,1.431015632E1
2.268194792E0,1.097230894E0,-1.223916844E1,-9.047771001E-1,1.232151701E1
2.278221792E0,3.708424035E-1,-1.039567115E1,-8.893919063E-1,1.044023567E1
2.288248792E0,-5.027143657E-1,-8.691053424E0,-8.203105617E-1,8.744143227E0
2.298274792E0,-1.452112153E0,-7.038399900E0,-9.791104138E-1,7.253024201E0
2.308301792E0,-2.167478642E0,-6.274792712E0,-8.866682001E-1,6.697549384E0
2.318328792E0,-2.457956622E0,-6.575034957E0,-4.024486141E-1,7.030974351E0
2.328354792E0,-2.587978525E0,-7.422391815E0,2.338489381E-1,7.864109512E0
2.338381792E0,-2.247260392E0,-8.393939440E0,9.601081324E-1,8.742437086E0
2.348407792E0,-1.259574451E0,-9.300476552E0,1.521553102E0,9.507918580E0
2.358434792E0,6.628929913E-2,-9.798410819E0,1.657127813E0,9.937772458E0
2.368461792E0,1.056265301E0,-1.002343390E1,1.409608158E0,1.017702897E1
2.378487792E0,1.814431070E0,-1.002601720E1,1.055289109E0,1.024337913E1
2.388514792E0,2.279293486E0,-1.000352179E1,6.002635010E-1,1.027744828E1
2.398541792E0,2.643565958E0,-9.903313376E0,5.449452960E-1,1.026455173E1
2.408567792E0,2.850391331E0,-9.729380929E0,3.033558504E-1,1.014285999E1
2.418594792E0,2.610569535E0,-9.468813213E0,-4.247148843E-1,9.831270502E0
2.428620792E0,2.166964380E0,-8.808604678E0,-8.600342059E-1,9.111910328E0
2.438647792E0,1.821595079E0,-7.765617526E0,-1.053635516E0,8.045692760E0
2.448674792E0,1.875770263E0,-6.273788745E0,-1.078938684E0,6.636493651E0
2.458700792E0,1.748595077E0,-4.683938996E0,-7.203476592E-1,5.051313691E0
2.468727792E0,1.419286469E0,-2.984837530E0,-3.310950780E-1,3.321634102E0
2.478754792E0,1.373899212E0,-5.970007181E-1,-1.888755906E0,2.410686162E0
2.488780792E0,1.327737345E0,2.825762274E0,-2.146153847E0,3.788640286E0
2.498807792E0,1.938384148E-1,6.268782944E0,1.103552173E0,6.368126909E0
2.508833792E0,-2.672576918E0,8.848419539E0,2.057368555E0,9.469422426E0
2.518860792E0,-4.945515357E0,1.015284447E1,1.050195088E0,1.134201405E1
2.528887792E0,-5.176882079E0,1.023311973E1,-4.000374050E-1,1.147505457E1
2.538913792E0,-4.388373939E0,8.748702877E0,-8.656101108E-2,9.788009025E0
2.548940792E0,-3.423135459E0,6.626868185E0,1.300170646E0,7.571240455E0
2.558967792E0,-3.239064818E0,5.198563555E0,1.910539123E0,6.416133078E0
2.568993792E0,-3.221954988E0,4.492445607E0,1.084876020E0,5.633827957E0
2.579020792E0,-2.712380377E0,4.105028978E0,-6.300835334E-2,4.920593488E0
2.589046792E0,-2.122014494E0,4.112349107E0,-5.496860723E-1,4.660098226E0
2.599073792E0,-1.705652979E0,4.176070309E0,-7.593801626E-1,4.574436965E0
2.609100792E0,-1.429065060E0,4.126787052E0,-6.055879390E-1,4.409006132E0
2.619126792E0,-1.484211613E0,4.046918764E0,-7.819924419E-1,4.380861533E0
2.629153792E0,-2.060200946E0,4.000283711E0,-1.297726364E0,4.683032289E0
2.639180792E0,-2.584029900E0,3.990953309E0,-1.535870448E0,4.996380377E0
2.649206792E0,-2.816020520E0,3.799203227E0,-1.472166203E0,4.952897138E0
2.659233792E0,-2.459884741E0,3.191024387E0,-1.692060249E0,4.369981403E0
2.669259792E0,-1.965083705E0,2.885269972E0,-1.846619700E0,3.949220315E0
2.679286792E0,-1.659600016E0,3.110438061E0,-1.499836689E0,3.831267054E0
2.689313792E0,-1.714321184E0,3.685424012E0,-1.296823408E0,4.266497184E0
2.699339792E0,-2.169246256E0,4.167041624E0,-1.160485196E0,4.839069239E0
2.709366792E0,-3.029297419E0,4.564114344E0,-7.970186166E-1,5.535613902E0
2.719393792E0,-3.692058848E0,5.106114398E0,-9.403303640E-1,6.370865245E0
2.729419792E0,-4.297214677E0,5.508370675E0,-1.354410442E0,7.116363476E0
2.739446792E0,-4.626300652E0,5.800239122E0,-1.180048956E0,7.512519360E0
2.749472792E0,-4.646454835E0,6.360823381E0,-1.004106091E0,7.940897031E0
2.759499792E0,-4.751379611E0,6.997159488E0,-9.719124913E-1,8.513545854E0
2.769526792E0,-5.017309810E0,7.527692567E0,-1.106113107E0,9.113892655E0
2.779552792E0,-4.832819923E0,7.947343726E0,-1.173747997E0,9.375185602E0
2.789579792E0,-4.132616141E0,8.371997763E0,-1.171701471E0,9.409662430E0
2.799606792E0,-3.513931609E0,8.678404142E0,-9.624329853E-1,9.412156557E0
2.809632792E0,-2.700167005E0,8.667556388E0,-7.800045347E-1,9.111851769E0
2.819659792E0,-1.977104703E0,8.354807534E0,-1.113561291E0,8.657469069E0
2.829686792E0,-1.912783869E0,7.638120743E0,-1.250893675E0,7.972726359E0
2.839712792E0,-1.575004254E0,7.103223302E0,-1.088219458E0,7.356673248E0
2.849739792E0,-1.127201675E0,6.967245718E0,-8.357400481E-1,7.107148369E0
2.859765792E0,-6.762945172E-1,6.922961245E0,-6.723760056E-1,6.988337153E0
2.869792792E0,-1.354451957E-1,6.933593237E0,-6.637967516E-1,6.966612284E0
2.879819792E0,1.727363983E-1,6.977760181E0,-1.268482538E-1,6.981050457E0
2.889845792E0,5.355552524E-2,6.727484733E0,2.752824544E-1,6.733327517E0
2.899872792E0,-5.227777706E-1,5.866686881E0,1.741207997E-1,5.892506224E0
2.909899792E0,-8.607272471E-1,4.518370407E0,2.751488455E-1,4.607844335E0
2.919925792E0,-8.787243922E-1,3.075600935E0,3.197736260E-1,3.214612393E0
2.929952792E0,-1.224720953E0,1.477155193E0,2.364087760E-1,1.933343732E0
2.939978792E0,-1.701650852E0,-6.883810043E-1,2.886337674E-1,1.858169390E0
2.950005792E0,-1.908323028E0,-3.035303679E0,7.059004319E-1,3.654183988E0
2.960032792E0,-1.939477578E0,-5.177380262E0,9.611220396E-1,5.611648174E0
2.970058792E0,-1.841208687E0,-7.094456572E0,8.462745380E-1,7.378180268E0
2.980085792E0,-1.157272443E0,-9.006829966E0,4.061721575E-1,9.089952771E0
2.990111792E0,1.651129447E-2,-1.055469437E1,2.661675588E-1,1.055806284E1
3.000138792E0,1.007203946E0,-1.152680800E1,4.282874966E-1,1.157865246E1
3.010165792E0,1.778314866E0,-1.222293774E1,8.766321123E-1,1.238269335E1
3.020191792E0,2.618490758E0,-1.254600225E1,9.492884445E-1,1.285145186E1
3.030218792E0,3.161221713E0,-1.249065602E1,5.585798335E-1,1.289658179E1
3.040245792E0,3.116768256E0,-1.199504134E1,-3.347858405E-1,1.239787654E1
3.050271792E0,2.693136605E0,-1.145891949E1,-1.251947343E0,1.183753322E1
3.060298792E0,1.916060941E0,-1.100201923E1,-1.541875684E0,1.127355744E1
3.070325792E0,6.626827839E-1,-1.034981027E1,-1.553420427E0,1.048669806E1
3.080351792E0,-5.753265515E-1,-9.484201330E0,-1.114816103E0,9.566811927E0
3.090378792E0,-1.304328748E0,-8.776613976E0,-3.434034669E-1,8.879648209E0
3.100404792E0,-1.551541424E0,-8.227330631E0,4.878589296E-1,8.386552119E0
3.110431792E0,-1.706586487E0,-7.763403770E0,1.108114024E0,8.025633447E0
3.120458792E0,-1.787149716E0,-7.692857113E0,1.306307738E0,8.005023084E0
3.130484792E0,-1.546539716E0,-7.908836303E0,1.106876754E0,8.134288715E0
3.140511792E0,-1.123505943E0,-8.095622683E0,7.807143867E-1,8.210413338E0
3.150538792E0,-6.787705207E-1,-8.325485501E0,6.774034417E-1,8.380531825E0
3.160564792E0,-6.264718544E-1,-8.655668998E0,7.440488362E-1,8.710148188E0
3.170591000E0,-5.984449804E-1,-8.839280925E0,8.449097979E-1,8.899713267E0
3.180617000E0,-4.667864415E-1,-8.774856888E0,7.667161524E-1,8.820649446E0
3.190644000E0,-1.407617035E-1,-8.588778605E0,3.319476020E-1,8.596343467E0
3.200671000E0,2.227678797E-1,-8.207207438E0,-5.010794842E-1,8.225506678E0
3.210697000E0,5.023426290E-1,-7.614520211E0,-1.229715060E0,7.729519085E0
3.220724000E0,8.264548159E-1,-6.487863497E0,-8.664333987E-1,6.597431860E0
3.230751000E0,1.206737988E0,-4.959100193E0,-3.698281308E-1,5.117192995E0
3.240777000E0,9.801661286E-1,-3.644526247E0,-1.145110527E0,3.943928920E0
3.250804000E0,6.375640225E-1,-2.523838370E0,-1.452909129E0,2.981139537E0
3.260830000E0,5.317681570E-1,-1.519076806E0,-5.069277962E-1,1.687408518E0
3.270857000E0,4.298870024E-1,-7.660571712E-1,4.658383155E-1,9.943096905E-1
3.280884000E0,6.531380814E-1,-4.168398178E-1,5.138884679E-1,9.297452041E-1
3.290910000E0,8.039781189E-1,-5.092690945E-1,2.794395324E-1,9.918781571E-1
3.300937000E0,1.301824385E0,-9.499316382E-1,6.384258290E-1,1.733408315E0
3.310963000E0,2.285029312E0,-1.146403347E0,9.368899354E-1,2.722749041E0
3.320990000E0,2.919127105E0,-9.360421622E-1,-4.834795113E-1,3.103422372E0
3.331017000E0,1.865941824E0,3.045001870E-1,-2.504992794E0,3.138383047E0
3.341043000E0,1.421981451E-1,2.619676573E0,-3.181769414E0,4.123903765E0
3.351070000E0,-1.922804242E0,4.531292168E0,-1.849978341E0,5.258536368E0
3.361097000E0,-4.796613964E0,6.416518695E0,-4.813040547E-1,8.025638372E0
3.371123000E0,-6.448425196E0,8.215395879E0,-6.624065030E-1,1.046487933E1
3.381150000E0,-6.350712376E0,8.498239149E0,1.597155261E0,1.072858431E1
3.391177000E0,-5.584204384E0,7.429000338E0,2.314709048E0,9.577643896E0
3.401203000E0,-5.032286868E0,6.518376607E0,2.407123268E-1,8.238391052E0
3.411230000E0,-4.570415304E0,5.419496505E0,-8.516375311E-1,7.140372883E0
3.421256000E0,-3.875736263E0,4.595325027E0,-8.535624345E-1,6.071812951E0
3.431283000E0,-2.809390070E0,4.719422239E0,-5.410894959E-1,5.518912635E0
3.441310000E0,-2.173174415E0,5.483015394E0,-2.096224619E-1,5.901701994E0
3.451336000E0,-2.658731296E0,6.630558947E0,-1.006929127E0,7.214365553E0
3.461363000E0,-3.295531380E0,7.602932199E0,-1.564193337E0,8.432781623E0
3.471390000E0,-3.377735046E0,8.121887791E0,-2.127788912E0,9.049952541E0
3.481416000E0,-3.269810063E0,7.886065491E0,-2.395677928E0,8.866846086E0
3.491443000E0,-3.659300991E0,7.289796844E0,-2.298445748E0,8.474342136E0
3.501469000E0,-3.836031623E0,6.993169348E0,-2.112283266E0,8.251139118E0
3.511496000E0,-3.385665917E0,6.765988648E0,-2.091993427E0,7.849698885E0
3.521523000E0,-3.766346261E0,5.993965563E0,-1.581536179E0,7.253567674E0
3.531549000E0,-3.607313982E0,6.009880514E0,-1.044546604E0,7.086780338E0
3.541576000E0,-2.930352005E0,6.449455476E0,-6.911688106E-1,7.117594617E0
3.551603000E0,-2.771281719E0,6.792744337E0,-5.787715848E-1,7.359100118E0
3.561629000E0,-2.539739873E0,7.007807268E0,-6.645337200E-1,7.483398051E0
3.571656000E0,-2.495534922E0,7.116121675E0,-9.051853819E-1,7.595146004E0
3.581682000E0,-2.657690784E0,7.185118235E0,-8.497371130E-1,7.707872438E0
3.591709000E0,-2.760200953E0,7.200305793E0,-7.977299304E-1,7.752385817E0
3.601736000E0,-2.843647737E0,7.131758884E0,-8.317101471E-1,7.722697651E0
3.611762000E0,-2.555758612E0,6.970372809E0,-6.055994873E-1,7.448808624E0
3.621789000E0,-1.993190393E0,6.968680624E0,-4.002675661E-1,7.259168803E0
3.631816000E0,-1.280252253E0,6.937481051E0,-2.125731131E-1,7.057823779E0
3.641842000E0,-7.559999603E-1,6.739598994E0,-1.694591801E-1,6.783984593E0
3.651869000E0,-4.634555751E-1,6.348958211E0,-1.123811460E-1,6.366843092E0
3.661895000E0,-1.752062622E-1,5.766926365E0,-1.670549512E-1,5.772005223E0
3.671922000E0,-1.470007557E-1,4.931580273E0,-3.181212759E-1,4.944016015E0
3.681949000E0,-3.439987135E-1,3.741536817E0,-2.635480428E-1,3.766548876E0
3.691975000E0,-6.598932235E-1,2.366516109E0,-3.528092249E-1,2.482001594E0
3.702002000E0,-9.949322484E-1,8.567217582E-1,-2.674118098E-1,1.339914709E0
3.712029000E0,-1.136109177E0,-6.385580492E-1,5.178367272E-3,1.303275589E0
3.722055000E0,-1.108520991E0,-2.162538330E0,5.760442972E-2,2.430783636E0
3.732082000E0,-9.506805935E-1,-3.701607935E0,2.265001209E-1,3.828445795E0
3.742108000E0,-6.545949152E-1,-5.173699440E0,6.465242958E-1,5.254869557E0
3.752135000E0,-2.814419114E-1,-6.661317056E0,8.809941351E-1,6.725214133E0
3.762162000E0,1.390921772E-1,-7.940852732E0,7.812710416E-1,7.980405578E0
3.772188000E0,4.388969770E-1,-9.097229674E0,7.398084354E-1,9.137807988E0
3.782215000E0,6.476066154E-1,-1.033571497E1,6.565978789E-1,1.037677788E1
3.792242000E0,7.692735053E-1,-1.161924547E1,5.103801385E-1,1.165586268E1
3.802268000E0,9.323318115E-1,-1.260302196E1,3.327872622E-1,1.264184134E1
3.812295000E0,1.271463887E0,-1.298307928E1,3.093715024E-1,1.304885737E1
3.822321000E0,1.524292522E0,-1.274960347E1,4.273823476E-1,1.284750995E1
3.832348000E0,1.164717703E0,-1.204066833E1,4.062902713E-1,1.210369088E1
3.842375000E0,5.134326044E-1,-1.112444823E1,2.947464466E-2,1.113632930E1
3.852401000E0,2.162478688E-1,-1.001073842E1,-4.802926326E-1,1.002458617E1
3.862428000E0,-1.214326358E-1,-9.086550320E0,-7.511871171E-1,9.118356468E0
3.872454000E0,-4.608240357E-1,-8.486521913E0,-7.588212419E-1,8.532832042E0
3.882481000E0,-7.236762598E-1,-8.046662777E0,-7.764435804E-1,8.116363337E0
3.892508000E0,-1.025453106E0,-7.881623946E0,-7.671850991E-1,7.984993618E0
3.902534000E0,-1.167119155E0,-7.941225784E0,-6.111252888E-1,8.049764481E0
3.912561000E0,-1.127572973E0,-8.118047340E0,-1.460540915E-1,8.197282795E0
3.922588000E0,-9.807803786E-1,-8.450375011E0,4.565576513E-1,8.519343453E0
3.932614000E0,-5.571975517E-1,-8.907090501E0,8.756006634E-1,8.967352275E0
3.942641000E0,1.941290215E-2,-9.285220581E0,1.048737961E0,9.344278967E0
3.952667000E0,5.241098394E-1,-9.360477755E0,1.077286334E0,9.436831077E0
3.962694000E0,9.923453671E-1,-9.126997849E0,1.039516829E0,9.239449892E0
3.972721000E0,1.237838597E0,-8.473632311E0,9.972788823E-1,8.621441533E0
3.982747000E0,1.559517903E0,-7.753340712E0,7.603380096E-1,7.945092962E0
3.992774000E0,1.608958451E0,-6.898906385E0,-1.227898915E0,7.189672617E0
4.002801000E0,6.590808991E-1,-5.805685803E0,-4.268858020E0,7.236264511E0
4.012827000E0,1.769499019E-2,-4.408945028E0,-4.652151192E0,6.409494527E0
4.022854000E0,-5.827846751E-2,-2.251293801E0,4.030907480E-1,2.287837912E0
4.032880000E0,-9.109405039E-1,2.730433363E-1,3.699942648E0,3.820201679E0
4.042907000E0,-1.933042717E0,2.819527388E0,1.513772943E0,3.738702630E0
4.052934000E0,-2.269664876E0,5.439934278E0,2.637854397E-1,5.900325953E0
4.062960000E0,-2.489314070E0,8.156953543E0,-3.220870037E-1,8.534419470E0
4.072987000E0,-3.488045400E0,9.902727485E0,-1.543045274E0,1.061185474E1
4.083014000E0,-4.100162340E0,1.069348856E1,-2.082216883E0,1.164034604E1
4.093040000E0,-3.488084577E0,1.103120502E1,-5.459219272E-1,1.158241119E1
4.103067000E0,-2.946518971E0,9.903801033E0,3.189195378E0,1.081379749E1
4.113093000E0,-3.361135093E0,8.017567617E0,6.384294105E-1,8.717007039E0
4.123120000E0,-3.582132947E0,6.145627719E0,-2.254383470E0,7.462081569E0
4.133147000E0,-3.189711687E0,5.119053701E0,-1.800161233E0,6.294406398E0
4.143173000E0,-2.981954268E0,4.386286483E0,-1.627661501E0,5.548048515E0
4.153200000E0,-2.305267695E0,3.474696792E0,-1.343997867E0,4.381107988E0
4.163227000E0,-1.391152299E0,2.542678683E0,-1.118715173E0,3.106773768E0
4.173253625E0,-9.344417793E-1,1.961951351E0,-1.687480710E0,2.751367967E0
4.183280625E0,-1.080233038E0,2.069672266E0,-2.484542742E0,3.409310684E0
4.193306625E0,-1.565097024E0,3.005154265E0,-2.597693381E0,4.269483781E0
4.203333625E0,-2.324742431E0,4.328394370E0,-2.108303651E0,5.346435212E0
4.213360625E0,-3.228595671E0,5.380151761E0,-9.502226834E-1,6.346084314E0
4.223386625E0,-4.128989991E0,6.458878264E0,-7.120550649E-1,7.698875839E0
4.233413625E0,-4.737080830E0,7.695938011E0,-1.380062323E0,9.141770544E0
4.243440625E0,-4.777054735E0,8.780930391E0,-1.564196553E0,1.011789016E1
4.253466625E0,-4.217755110E0,9.479416553E0,-1.487648606E0,1.048150250E1
4.263493625E0,-3.415579687E0,9.619145712E0,-1.475078408E0,1.031358353E1
4.273519625E0,-2.632458587E0,9.298229467E0,-1.238406361E0,9.742718293E0
4.283546625E0,-1.778193828E0,8.777695127E0,-7.681383415E-1,8.988878770E0
4.293573625E0,-1.147749960E0,8.337590407E0,-7.736451030E-1,8.451702226E0
4.303599625E0,-9.049080777E-1,8.007936083E0,-7.462577681E-1,8.093379986E0
4.313626625E0,-8.735684636E-1,7.796295528E0,-7.500806777E-1,7.880860793E0
4.323653625E0,-8.639954022E-1,7.720523799E0,-4.710446763E-1,7.782985216E0
4.333679625E0,-7.788450319E-1,7.831016879E0,-2.201220877E-1,7.872730065E0
4.343706625E0,-8.953923190E-1,8.037482648E0,-3.333145349E-1,8.094069021E0
4.353732625E0,-1.085662763E0,8.074353436E0,4.853291318E-2,8.147159167E0
4.363759625E0,-1.116486360E0,7.770554915E0,2.559899318E-1,7.854527123E0
4.373786625E0,-1.089193312E0,7.009188380E0,2.350799963E-2,7.093350157E0
4.383812625E0,-1.060742514E0,5.750826641E0,4.297295661E-1,5.863603776E0
4.393839625E0,-9.572193155E-1,4.253609651E0,6.770515855E-1,4.412240104E0
4.403866625E0,-7.706334946E-1,2.818542132E0,4.474172473E-1,2.956051069E0
4.413892625E0,-6.540407453E-1,1.316498850E0,1.480878261E-1,1.477453391E0
4.423919625E0,-5.718056506E-1,-4.386125100E-1,-2.725971937E-1,7.704880700E-1
4.433945625E0,-5.257281294E-1,-2.324669341E0,-5.606018007E-1,2.448418263E0
4.443972625E0,-3.675127065E-1,-4.189984928E0,-5.029049850E-1,4.236030301E0
4.453999625E0,-2.048340308E-1,-5.972129720E0,-1.689838015E-2,5.975665313E0
4.464025625E0,-1.365004720E-1,-7.874820126E0,7.901624639E-1,7.915540481E0
4.474052625E0,-8.348712981E-2,-9.769021543E0,1.174522022E0,9.839728350E0
4.484079625E0,6.208544344E-2,-1.149743861E1,1.072934836E0,1.154755984E1
4.494105625E0,2.880601921E-1,-1.309061543E1,7.211605684E-1,1.311362892E1
4.504132625E0,5.452054606E-1,-1.439121277E1,2.790395828E-1,1.440423955E1
4.514158625E0,8.073522547E-1,-1.509386215E1,1.271278604E-1,1.511597347E1
4.524185625E0,6.848984027E-1,-1.485148103E1,3.073436880E-1,1.487044165E1
4.534212625E0,-1.193919392E-1,-1.329212685E1,7.854471231E-1,1.331584837E1
4.544238625E0,-8.346353629E-1,-1.111420625E1,8.619801593E-1,1.117878377E1
4.554265625E0,-8.869957173E-1,-9.234793024E0,5.356365287E-1,9.292742872E0
4.564292625E0,-1.050758686E0,-7.949111924E0,2.358544235E-1,8.021726841E0
4.574318625E0,-1.381980941E0,-6.942392712E0,-1.472971912E-1,7.080140137E0
4.584345625E0,-1.618903687E0,-6.268147352E0,-6.442392039E-1,6.505810059E0
4.594371625E0,-1.728911448E0,-6.168108509E0,-8.620058870E-1,6.463571112E0
4.604398625E0,-1.850293798E0,-6.658351348E0,-5.898097758E-1,6.935784410E0
4.614425625E0,-1.776025681E0,-7.600786271E0,-1.308817363E-1,7.806622137E0
4.624451625E0,-1.057465442E0,-8.560383357E0,3.584156084E-1,8.632893960E0
4.634478625E0,-4.002470277E-2,-9.253195381E0,9.042392293E-1,9.297358513E0
4.644505625E0,7.468014130E-1,-9.805495305E0,1.303062533E0,9.919849923E0
4.654531625E0,1.444868330E0,-1.010529141E1,1.308010447E0,1.029152322E1
4.664558625E0,2.199075826E0,-9.947262218E0,1.035188720E0,1.023990116E1
4.674584625E0,2.799163290E0,-9.327800590E0,5.190129677E-1,9.752566505E0
4.684611625E0,3.004732389E0,-8.405860743E0,-2.715586917E-1,8.930882133E0
4.694638625E0,2.750581406E0,-7.304779750E0,-1.355049981E0,7.922226058E0
4.704664625E0,2.332634857E0,-5.745629636E0,-2.612829484E0,6.729065552E0
4.714691625E0,1.563149463E0,-3.630260795E0,-3.384173123E0,5.203350594E0
4.724717625E0,3.317347634E-1,-1.445871420E0,-1.854966016E0,2.375182316E0
4.734744625E0,-6.736219011E-1,5.665285385E-1,2.723379282E0,2.862082417E0
4.744771625E0,-1.550370958E0,2.810911515E0,4.754926533E0,5.737089853E0
4.754797625E0,-2.526881261E0,4.921834719E0,1.264700121E0,5.675301957E0
4.764824625E0,-2.656679508E0,6.598548950E0,-3.403567168E0,7.885623864E0
4.774851625E0,-1.973179175E0,7.531214930E0,-3.411361506E0,8.500001276E0
4.784877625E0,-2.422681831E0,7.561123438E0,3.268301920E-1,7.946495635E0
4.794904625E0,-4.196324480E0,6.759499993E0,3.335680994E0,8.627093774E0
4.804930625E0,-4.693886279E0,5.504902107E0,2.162166009E0,7.550594510E0
4.814957625E0,-3.309899158E0,3.866042165E0,-1.840726876E0,5.412022717E0
4.824984625E0,-1.240314600E0,2.244723870E0,-4.121413461E0,4.854195554E0
4.835010625E0,-3.053933492E-1,1.388325462E0,-2.135189148E0,2.565101438E0
4.845037625E0,-2.533624855E-1,1.737217126E0,-2.066240828E-1,1.767713043E0
4.855064625E0,-7.080945995E-1,3.050820435E0,-1.007144305E0,3.289869745E0
4.865090625E0,-1.172958184E0,4.553723257E0,-8.838629253E-1,4.784708985E0
4.875117625E0,-1.767064531E0,6.327327606E0,-5.114113681E-1,6.589319637E0
4.885143625E0,-3.081948672E0,8.069471596E0,-8.259379220E-1,8.677381685E0
4.895170625E0,-4.949958072E0,8.694676943E0,-8.155744632E-1,1.003815988E1
4.905197625E0,-6.082360845E0,7.966962304E0,-5.178164812E-1,1.003671937E1
4.915223625E0,-6.292872303E0,6.588363100E0,-1.278666195E-1,9.111702368E0
4.925250625E0,-5.737176901E0,5.068187603E0,-6.290481377E-1,7.680978188E0
4.935277625E0,-4.248876623E0,3.994475672E0,-1.675739354E0,6.067692381E0
4.945303625E0,-2.904655831E0,3.743506159E0,-1.904728160E0,5.106745855E0
4.955330625E0,-2.116212595E0,4.379366888E0,-1.756404326E0,5.171282843E0
4.965356625E0,-1.900851456E0,5.430119727E0,-1.269498346E0,5.891609504E0
4.975383625E0,-2.006075318E0,7.108815579E0,-1.520050367E0,7.541230022E0
4.985410625E0,-2.419919607E0,9.216515213E0,-1.904570139E0,9.717383958E0
4.995436625E0,-3.222283017E0,1.111232812E1,-1.862531143E0,1.171904290E1
5.005463625E0,-4.098767487E0,1.212284978E1,-1.517274109E0,1.288664046E1
5.015489625E0,-4.644760312E0,1.208056505E1,-1.123792602E0,1.299141102E1
5.025516625E0,-4.813258648E0,1.132303839E1,-9.175697847E-1,1.233777093E1
5.035543625E0,-4.465442872E0,1.002829878E1,-8.425919616E-1,1.100985548E1
5.045569625E0,-3.750427216E0,8.535349672E0,-3.422047877E-1,9.329255193E0
5.055596625E0,-2.624446147E0,7.222396574E0,-8.633998632E-2,7.684932299E0
5.065623625E0,-1.424104867E0,6.152408150E0,-1.950268614E-1,6.318088017E0
5.075649625E0,-4.381653441E-1,5.298435168E0,-1.922014137E-1,5.319994876E0
5.085676625E0,4.269978932E-1,4.518918875E0,7.155003905E-2,4.539611703E0
5.095702625E0,9.757295537E-1,3.597859034E0,2.310059488E-1,3.734970085E0
5.105729625E0,1.097129299E0,2.483246999E0,4.840162126E-1,2.757622173E0
5.115756625E0,9.206752409E-1,1.012485151E0,3.360559288E-1,1.409149626E0
5.125782625E0,4.471738569E-1,-5.693065506E-1,9.084124602E-2,7.296071127E-1
5.135809625E0,-3.168021441E-2,-2.137261401E0,1.686079717E-1,2.144135859E0
5.145836625E0,-4.078117168E-1,-3.627872792E0,2.038596654E-1,3.656409462E0
5.155862625E0,-6.514893859E-1,-5.125367525E0,3.468241612E-1,5.178234997E0
5.165889625E0,-6.729855779E-1,-6.674597837E0,6.275746393E-1,6.737730760E0
5.175915792E0,-4.773585729E-1,-8.162688493E0,6.381802460E-1,8.201501610E0
5.185942792E0,-7.631054968E-2,-9.602516815E0,4.513360512E-1,9.613420656E0
5.195969792E0,3.241982140E-1,-1.079392384E1,3.424304172E-1,1.080421931E1
5.205995792E0,6.563157508E-1,-1.170523813E1,2.365912092E-1,1.172601064E1
5.216022792E0,9.001054671E-1,-1.227822316E1,2.021382451E-1,1.231283126E1
5.226049792E0,9.976753235E-1,-1.232129843E1,3.577338231E-1,1.236679929E1
5.236075792E0,8.798284927E-1,-1.164917269E1,7.570331633E-1,1.170685362E1
5.246102792E0,5.119804484E-1,-1.049089540E1,1.020491159E0,1.055283907E1
5.256128792E0,2.195189109E-2,-9.353880342E0,1.059232471E0,9.413688584E0
5.266155792E0,-2.186504715E-1,-8.464487266E0,9.247757471E-1,8.517661820E0
5.276182792E0,-3.253914115E-1,-7.841823703E0,7.790678108E-1,7.887143032E0
5.286208792E0,-4.529452050E-1,-7.364381588E0,6.450086975E-1,7.406437184E0
5.296235792E0,-5.753329834E-1,-7.084513382E0,4.963327146E-1,7.125144494E0
5.306262792E0,-5.911137414E-1,-7.051803473E0,2.960702562E-1,7.082725836E0
5.316288792E0,-5.500159649E-1,-7.167279550E0,2.028167048E-2,7.188381254E0
5.326315792E0,-4.500210124E-1,-7.363496904E0,-2.288787317E-1,7.380785259E0
5.336341792E0,-3.348891170E-1,-7.575245633E0,-3.248385938E-1,7.589599280E0
5.346368792E0,-1.889969203E-1,-7.743630241E0,-2.521798861E-1,7.750040248E0
5.356395792E0,7.903367110E-2,-7.822378787E0,-1.122384373E-1,7.823583174E0
5.366421792E0,4.136815904E-1,-7.778090222E0,-1.925831638E-2,7.789107192E0
5.376448792E0,6.879335462E-1,-7.653903548E0,-1.088084606E-1,7.685527396E0
5.386474792E0,9.914433610E-1,-7.468113533E0,-2.185689211E-3,7.533636868E0
5.396501792E0,1.316190702E0,-7.275886318E0,6.823232889E-1,7.425391892E0
5.406528792E0,1.621096247E0,-7.080206323E0,1.074490122E0,7.342465774E0
5.416554792E0,1.982928530E0,-6.664137753E0,6.409483910E-2,6.953189605E0
5.426581792E0,2.396458239E0,-5.801874003E0,-1.918779019E0,6.564028258E0
5.436608792E0,2.697150427E0,-4.388549355E0,-3.475119545E0,6.213730097E0
5.446634792E0,2.502784300E0,-2.588036120E0,-3.074154918E0,4.734161877E0
5.456661792E0,1.664396341E0,-6.067550433E-1,-3.957253759E-1,1.815203965E0
5.466687792E0,-5.467921391E-2,1.433015147E0,1.696111200E0,2.221106803E0
5.476714792E0,-2.186769192E0,3.228745360E0,2.756935283E0,4.775714423E0
5.486741792E0,-3.890735541E0,4.695080865E0,2.068281798E0,6.438897186E0
5.496767792E0,-5.148374564E0,5.418548672E0,-2.094077083E0,7.762189716E0
5.506794792E0,-5.465704712E0,4.630825812E0,-2.431927156E0,7.565232673E0
5.516821792E0,-3.522003982E0,3.036940314E0,1.044173698E0,4.766321143E0
5.526847792E0,-3.192018414E-1,1.857831736E0,2.005846545E0,2.752607662E0
5.536874792E0,1.252145272E0,1.363375978E0,2.803729673E-1,1.872236854E0
5.546900792E0,4.512460041E-1,2.024176835E0,-2.508091818E0,3.254449168E0
5.556927792E0,-1.401105137E0,4.016619662E0,-2.909574509E0,5.153828959E0
5.566954792E0,-2.212216274E0,6.348936576E0,-9.982867961E-1,6.797019422E0
5.576980792E0,-2.129641602E0,7.350293891E0,1.930665093E0,7.892379954E0
5.587007792E0,-4.678244392E0,9.663971052E0,-8.989883566E-1,1.077434393E1
5.597033792E0,-7.441303464E0,1.167979806E1,-2.847788150E0,1.413862007E1
5.607060792E0,-8.492755630E0,1.069566255E1,-2.033073374E0,1.380787757E1
5.617087792E0,-8.316957922E0,9.004807999E0,-9.820479088E-1,1.229726694E1
5.627113792E0,-7.452208521E0,8.364128580E0,-1.497168020E0,1.130201623E1
5.637140792E0,-6.197686064E0,7.850450685E0,-1.453086738E0,1.010704455E1
5.647167792E0,-4.493097571E0,7.936208289E0,-1.444188737E0,9.233472201E0
5.657193792E0,-3.062779160E0,8.672465125E0,-1.405522124E0,9.304179704E0
5.667220792E0,-3.104114005E0,8.943454919E0,-1.195622284E0,9.542034495E0
5.677246792E0,-3.250543780E0,9.297772214E0,-1.416203817E0,9.950891230E0
5.687273792E0,-2.759777030E0,9.812425425E0,-1.475591794E0,1.029938994E1
5.697300792E0,-2.130288597E0,9.973520894E0,-9.230506723E-1,1.024017925E1
5.707326792E0,-1.850092069E0,9.688638116E0,-5.179182959E-1,9.877286498E0
5.717353792E0,-1.856694745E0,9.102989182E0,-4.942932057E-1,9.303550569E0
5.727380792E0,-1.981773997E0,8.372304157E0,-2.494433892E-1,8.607271756E0
5.737406792E0,-1.899765628E0,7.721320775E0,-2.896288173E-1,7.956870540E0
5.747433792E0,-1.619982791E0,7.047298193E0,-2.006225006E-1,7.233879004E0
5.757459792E0,-1.152699628E0,6.181362977E0,-4.311590642E-3,6.287923606E0
5.767486792E0,-5.826460961E-1,5.340436302E0,-9.310536101E-2,5.372932624E0
5.777513792E0,-5.463930666E-2,4.566130464E0,-1.265337467E-3,4.566457541E0
5.787539792E0,2.423255736E-1,3.623776233E0,3.862648002E-1,3.652352169E0
5.797566792E0,3.896327233E-1,2.508580061E0,4.387212682E-1,2.576288790E0
5.807593792E0,3.099112004E-1,1.206457175E0,1.190070646E-1,1.251297946E0
5.817619792E0,1.178626183E-1,-1.424124455E-1,2.093076624E-2,1.860403139E-1
5.827646792E0,-1.596402432E-1,-1.556591372E0,-2.719298802E-2,1.564992385E0
5.837672792E0,-3.265384890E-1,-2.965228307E0,6.968718924E-2,2.983967594E0
5.847699792E0,-3.707576188E-1,-4.261146712E0,2.431096852E-1,4.284149254E0
5.857726792E0,-3.186191663E-1,-5.554942578E0,4.773409581E-1,5.584510687E0
5.867752792E0,-8.622684270E-2,-6.765689855E0,5.611865222E-1,6.789471599E0
5.877779792E0,1.968089466E-1,-7.872985269E0,4.227711602E-1,7.886784279E0
5.887805792E0,5.354706140E-1,-8.891745068E0,4.079554852E-1,8.917190522E0
5.897832792E0,8.314348894E-1,-9.689943799E0,5.674091291E-1,9.742086425E0
5.907859792E0,1.115171321E0,-1.018130638E1,8.282428944E-1,1.027563103E1
5.917885792E0,1.333610873E0,-1.034856832E1,1.023894312E0,1.048426172E1
5.927912792E0,1.467778598E0,-1.031245943E1,1.191890591E0,1.048435962E1
5.937939792E0,1.485571968E0,-9.971792457E0,1.232714682E0,1.015692642E1
5.947965792E0,1.334435769E0,-9.396192548E0,9.872649407E-1,9.541689855E0
5.957992792E0,9.269548582E-1,-8.718792030E0,7.296027783E-1,8.798232776E0
5.968018792E0,6.257646337E-1,-8.104843742E0,4.973676717E-1,8.144166505E0
5.978045792E0,4.932947937E-1,-7.805454022E0,2.447012973E-1,7.824853415E0
5.988072792E0,3.648737119E-1,-7.648465052E0,8.349714316E-2,7.657618576E0
5.998098792E0,2.227050222E-1,-7.562292296E0,-2.231176894E-2,7.565603751E0
6.008125792E0,9.084409654E-2,-7.558950613E0,-7.249261022E-2,7.559844059E0
6.018151792E0,1.630846918E-2,-7.568631263E0,-4.995627165E-2,7.568813697E0
6.028178792E0,8.429908879E-2,-7.549340129E0,2.702118952E-2,7.549859129E0
6.038205792E0,2.011798865E-1,-7.513273918E0,1.073092711E-1,7.516732907E0
6.048231792E0,3.826116791E-1,-7.495977269E0,2.510618985E-1,7.509933355E0
6.058258792E0,6.386641762E-1,-7.483446102E0,4.693068838E-1,7.525297764E0
6.068285792E0,9.086388937E-1,-7.489989721E0,6.902591300E-1,7.576412629E0
6.078311792E0,1.183598216E0,-7.485075721E0,8.354465910E-1,7.623990706E0
6.088338792E0,1.473996527E0,-7.414554791E0,7.314679670E-1,7.594954503E0
6.098364792E0,1.817237295E0,-7.245343972E0,2.627505191E-1,7.474382817E0
6.108391792E0,2.049703586E0,-6.912595886E0,-1.267792567E-1,7.211195439E0
6.118418792E0,2.098853673E0,-6.426616836E0,-1.781405412E-2,6.760688429E0
6.128444792E0,1.960014461E0,-5.749757770E0,-2.568338312E-2,6.074704169E0
6.138471792E0,1.776422414E0,-4.855275278E0,-1.533780799E0,5.392759791E0
6.148497792E0,1.360662577E0,-3.699942064E0,-3.978912138E0,5.601135217E0
6.158524792E0,6.507132411E-1,-2.127055671E0,-3.840563507E0,4.438211532E0
6.168551792E0,-5.466056129E-1,-2.318035090E-1,1.102939092E-1,6.038835229E-1
6.178577000E0,-2.324658231E0,1.534553801E0,3.790924155E0,4.704253097E0
6.188604000E0,-4.027687857E0,3.222244425E0,1.505720011E0,5.373297066E0
6.198631000E0,-4.677179614E0,4.485466370E0,-2.288375673E0,6.872559998E0
6.208657000E0,-3.800837524E0,4.662036495E0,-2.515417210E0,6.519836954E0
6.218684000E0,-2.110309246E0,4.133718926E0,5.042896056E-1,4.668548520E0
6.228710000E0,-1.230924557E0,3.893949171E0,1.561551419E0,4.372237212E0
6.238737000E0,-1.734507819E0,4.601552896E0,-1.545224823E0,5.154660628E0
6.248764000E0,-3.301576524E0,6.172672260E0,-3.176226254E0,7.687047781E0
6.258790000E0,-4.390640027E0,8.478167412E0,-2.126042933E0,9.781467225E0
6.268817000E0,-5.799108270E0,1.099343669E1,-1.133791268E0,1.248081686E1
6.278844000E0,-7.753983321E0,1.230768845E1,-5.328345430E-1,1.455635136E1
6.288870000E0,-9.417652999E0,1.143014885E1,3.421827145E-1,1.481410071E1
6.298897000E0,-9.955472878E0,9.306937725E0,1.490057659E-1,1.362911343E1
6.308923000E0,-8.440328325E0,8.006711091E0,-1.053272770E0,1.168143605E1
6.318950000E0,-5.946700764E0,7.938411520E0,-2.082002875E0,1.013490816E1
6.328977000E0,-5.110155408E0,8.461991090E0,-2.164887156E0,1.011957103E1
6.339003000E0,-4.243187574E0,9.291521541E0,-1.938180081E0,1.039680506E1
6.349030000E0,-3.402968120E0,1.025020763E1,-1.784845182E0,1.094680870E1
6.359057000E0,-2.963548695E0,1.132554099E1,-1.532427899E0,1.180672838E1
6.369083000E0,-2.500286662E0,1.220142466E1,-8.743224621E-1,1.248561720E1
6.379110000E0,-2.102565486E0,1.250232706E1,-9.831810261E-1,1.271595881E1
6.389136000E0,-1.974788328E0,1.201752271E1,-8.324679463E-1,1.220711448E1
6.399163000E0,-1.909859676E0,1.081236713E1,-5.977386367E-1,1.099600557E1
6.409190000E0,-1.821712316E0,9.273822604E0,-4.457027706E-1,9.461557610E0
6.419216000E0,-1.619094599E0,7.822248394E0,-3.809132092E-1,7.997132745E0
6.429243000E0,-1.220622055E0,6.458496441E0,-2.476133569E-1,6.577492444E0
6.439269000E0,-6.565610415E-1,5.182943888E0,-1.524182010E-1,5.226586941E0
6.449296000E0,-1.050762194E-1,3.978974118E0,-4.642689228E-3,3.980364003E0
6.459323000E0,2.915211225E-1,2.743282034E0,1.075886218E-1,2.760825275E0
6.469349000E0,4.478426322E-1,1.350026200E0,2.199207243E-1,1.439270262E0
6.479376000E0,5.041836248E-1,-1.005797106E-1,1.220864276E-1,5.284150845E-1
6.489403000E0,4.031406686E-1,-1.651233820E0,-1.665427351E-1,1.707873534E0
6.499429000E0,1.993637413E-1,-3.191655301E0,-9.607194588E-2,3.199318565E0
6.509456000E0,1.109993027E-1,-4.538785375E0,2.952587358E-1,4.549733097E0
6.519482000E0,1.319152316E-1,-5.697365549E0,5.588289249E-1,5.726226121E0
6.529509000E0,1.990633406E-1,-6.843935541E0,6.677987321E-1,6.879319374E0
6.539536000E0,3.723126858E-1,-7.925185118E0,7.851009679E-1,7.972675800E0
6.549562000E0,5.192907836E-1,-8.894000924E0,8.986165468E-1,8.954352408E0
6.559589000E0,6.938858655E-1,-9.800236319E0,1.027180374E0,9.878320152E0
6.569616000E0,8.535198230E-1,-1.063170805E1,1.029729760E0,1.071550538E1
6.579642000E0,9.921182759E-1,-1.133442525E1,1.000815351E0,1.142169540E1
6.589669000E0,1.178993095E0,-1.183024341E1,9.597982299E-1,1.192752684E1
6.599695000E0,1.355544802E0,-1.207692926E1,7.508456397E-1,1.217593902E1
6.609722000E0,1.418743848E0,-1.190264130E1,4.430785402E-1,1.199508327E1
6.619749000E0,1.240952531E0,-1.111444598E1,2.117229279E-1,1.118551292E1
6.629775000E0,6.980791962E-1,-9.871599247E0,1.431316531E-1,9.897286140E0
6.639802000E0,2.811741089E-1,-8.764747052E0,1.162624546E-1,8.770026609E0
6.649828000E0,1.366369314E-1,-8.017458858E0,8.779133834E-2,8.019103660E0
6.659855000E0,-3.341493711E-2,-7.443779760E0,1.448987547E-1,7.445264893E0
6.669882000E0,-1.639659403E-1,-7.021045949E0,2.670060496E-1,7.028034098E0
6.679908000E0,-2.613746327E-1,-6.900759367E0,4.385481906E-1,6.919618563E0
6.689935000E0,-2.549964899E-1,-7.040478001E0,6.582608271E-1,7.075779887E0
6.699962000E0,-4.964783102E-2,-7.308569330E0,8.542571568E-1,7.358492091E0
6.709988000E0,3.536495429E-1,-7.495093755E0,9.905779731E-1,7.568536392E0
6.720015000E0,8.402257396E-1,-7.578231221E0,1.099486969E0,7.703534211E0
6.730041000E0,1.355618769E0,-7.571145566E0,1.153845098E0,7.777615697E0
6.740068000E0,1.734507672E0,-7.537407716E0,1.135501286E0,7.817313804E0
6.750095000E0,1.915650466E0,-7.485046484E0,8.592192502E-1,7.773924061E0
6.760121000E0,2.009452816E0,-7.375269688E0,3.750263055E-1,7.653309632E0
6.770148000E0,2.068344948E0,-7.040834096E0,-2.099466169E-1,7.341353634E0
6.780174000E0,1.910114469E0,-6.268792884E0,-1.790385858E0,6.793510361E0
6.790201000E0,1.363821974E0,-4.887174763E0,-3.208472478E0,6.003231062E0
6.800228000E0,6.026970756E-1,-3.136289771E0,-2.885524911E0,4.304162090E0
6.810254000E0,-1.572652504E-2,-1.327026177E0,-1.056189434E0,1.696107873E0
6.820281000E0,-6.085749891E-1,7.425040019E-1,5.732294476E-1,1.118153706E0
6.830308000E0,-1.391112830E0,3.232365371E0,8.643656771E-1,3.623604396E0
6.840334000E0,-2.657265107E0,5.770103157E0,8.830381756E-1,6.413649874E0
6.850361000E0,-4.640124932E0,7.715563021E0,1.218489722E0,9.085449318E0
6.860387000E0,-6.148029170E0,8.593892580E0,1.646473601E-1,1.056789294E1
6.870414000E0,-5.252171413E0,7.518206044E0,2.460976124E-1,9.174382307E0
6.880441000E0,-2.210645127E0,5.249421467E0,1.743138016E0,5.956669184E0
6.890467000E0,6.489286709E-1,3.005195196E0,7.177493758E-1,3.157130145E0
6.900494000E0,1.590327175E0,1.300621905E0,-1.266512758E0,2.413464818E0
6.910520000E0,1.198477480E0,9.970736450E-1,-2.007408629E0,2.541691076E0
6.920547000E0,3.721132958E-1,2.307420055E0,-2.411057421E0,3.357953767E0
6.930574000E0,-1.036663973E0,4.929354238E0,-2.087772761E0,5.452705796E0
6.940600000E0,-3.065575591E0,8.170047798E0,-1.488843777E0,8.852349435E0
6.950627000E0,-5.442129908E0,1.084837662E1,-1.007262272E0,1.217861365E1
6.960654000E0,-7.861030052E0,1.201650530E1,-9.461729749E-1,1.439053287E1
6.970680000E0,-9.393284728E0,1.136056465E1,-7.957006542E-1,1.476243092E1
6.980707000E0,-9.536966019E0,9.510251260E0,-1.340160778E0,1.353494111E1
6.990733000E0,-7.434961574E0,7.683583429E0,-1.779492349E0,1.083894372E1
7.000760000E0,-4.039628456E0,6.688589054E0,-2.050281730E0,8.078333787E0
7.010787000E0,-2.548225937E0,6.181790408E0,-2.056643500E0,6.995553628E0
7.020813000E0,-1.897285824E0,6.076701325E0,-1.664060272E0,6.579900385E0
7.030840000E0,-1.811276790E0,6.677785154E0,-1.526133810E0,7.085380906E0
7.040867000E0,-2.012404051E0,7.930723600E0,-1.238964332E0,8.275335613E0
7.050893000E0,-2.311908085E0,9.441283937E0,-1.273207819E0,9.803255557E0
7.060920000E0,-2.766789888E0,1.065066004E1,-1.056112251E0,1.105473015E1
7.070946000E0,-3.326927712E0,1.116760185E1,-1.006448486E0,1.169601290E1
7.080973000E0,-3.744053459E0,1.090812113E1,-1.108928980E0,1.158597283E1
7.091000000E0,-3.790853988E0,1.002494833E1,-1.268375534E0,1.079254091E1
7.101026000E0,-3.346550968E0,8.607497882E0,-9.628050144E-1,9.285225719E0
7.111053000E0,-2.636281496E0,6.905579812E0,-8.286463523E-1,7.437988131E0
7.121079000E0,-1.731969250E0,5.209163972E0,-7.269118166E-1,5.537464001E0
7.131106000E0,-7.484772250E-1,3.658818596E0,-3.121161123E-1,3.747610991E0
7.141133000E0,7.459439188E-2,2.174546757E0,1.061773963E-1,2.178414919E0
7.151159000E0,6.065787497E-1,7.968790144E-1,3.311243872E-1,1.054797280E0
7.161186000E0,8.359173650E-1,-5.523022628E-1,5.238064420E-1,1.130561285E0
7.171213250E0,7.275289902E-1,-1.987806569E0,6.826671052E-1,2.224119548E0
7.181239250E0,4.687680629E-1,-3.406983111E0,7.999644439E-1,3.530895145E0
7.191266250E0,1.524468523E-1,-4.710809290E0,5.695771305E-1,4.747565936E0
7.201292250E0,-1.807790972E-1,-5.939539679E0,3.493756668E-1,5.952552061E0
7.211319250E0,-4.200217263E-1,-7.137518392E0,2.249295954E-1,7.153403411E0
7.221346250E0,-5.019216295E-1,-8.264292635E0,1.842353133E-1,8.281569944E0
7.231372250E0,-3.567675707E-1,-9.330923004E0,3.921189594E-1,9.345970494E0
7.241399250E0,-1.093720226E-1,-1.030256009E1,7.317218093E-1,1.032909113E1
7.251425250E0,4.210916206E-2,-1.124502133E1,9.201144929E-1,1.128268091E1
7.261452250E0,1.730636231E-1,-1.206154991E1,9.090058795E-1,1.209699256E1
7.271479250E0,3.477114031E-1,-1.247585554E1,8.810982156E-1,1.251176282E1
7.281505250E0,5.942560351E-1,-1.239369982E1,9.437873840E-1,1.244378038E1
7.291532250E0,7.603692922E-1,-1.187794032E1,9.530774403E-1,1.194035110E1
7.301559250E0,6.475966021E-1,-1.085760353E1,8.482449766E-1,1.090992462E1
7.311585250E0,6.669243541E-1,-9.646758603E0,6.220244622E-1,9.689770589E0
7.321612250E0,7.735436538E-1,-8.654180882E0,3.350559819E-1,8.695141116E0
7.331638250E0,5.431206724E-1,-8.138399159E0,1.663228798E-1,8.158197364E0
7.341665250E0,3.312865012E-1,-7.887188741E0,1.189065655E-1,7.895038680E0
7.351692250E0,1.908990561E-1,-7.762426116E0,9.121893961E-2,7.765308915E0
7.361718250E0,1.225047593E-1,-7.799000450E0,1.543185826E-1,7.801488938E0
7.371745250E0,1.084504283E-1,-7.878495685E0,2.054828890E-1,7.881921021E0
7.381772250E0,2.242293913E-1,-7.962759326E0,3.260069040E-1,7.972583985E0
7.391798250E0,5.996592278E-1,-7.949910654E0,5.292221697E-1,7.990040469E0
7.401825250E0,1.080950492E0,-7.783849145E0,7.558438396E-1,7.894812308E0
7.411851250E0,1.486131400E0,-7.610842313E0,8.768670972E-1,7.803999177E0
7.421878250E0,1.786411944E0,-7.618040820E0,8.980353335E-1,7.876057454E0
7.431905250E0,2.238264450E0,-7.610592636E0,5.273616953E-1,7.950412466E0
7.441931250E0,2.724590240E0,-7.162745034E0,-8.490507960E-1,7.710330450E0
7.451958250E0,2.802699686E0,-6.196362839E0,-2.723911378E0,7.325962815E0
7.461984250E0,2.086195621E0,-4.561596533E0,-4.664239726E0,6.849489566E0
7.472011250E0,8.116356325E-1,-2.409939287E0,-4.783510062E0,5.417428197E0
7.482038250E0,-3.648399442E-1,-1.264852148E-1,2.130094615E-1,4.409985546E-1
7.492064250E0,-2.131885764E0,2.458413289E0,3.510062799E0,4.786363302E0
7.502091250E0,-4.217440529E0,4.904471996E0,2.403830116E0,6.900655723E0
7.512118250E0,-5.265655677E0,6.793255384E0,3.544535351E-1,8.602388373E0
7.522144250E0,-5.759699206E0,7.576533775E0,-8.533085923E-1,9.555424352E0
7.532171250E0,-5.883932074E0,6.901784384E0,1.289652529E0,9.160703465E0
7.542197250E0,-4.723820515E0,5.977364148E0,2.137782827E0,7.912867864E0
7.552224250E0,-3.783948719E0,5.482294432E0,-1.025738596E0,6.739878323E0
7.562251250E0,-4.082933227E0,5.377656169E0,-3.007625299E0,7.391572197E0
7.572277250E0,-3.867465962E0,6.114566140E0,-1.952088122E0,7.493721377E0
7.582304250E0,-3.483142218E0,7.933286435E0,-1.520316854E0,8.796628712E0
7.592330250E0,-3.814016271E0,9.545100081E0,-1.106426372E0,1.033827041E1
7.602357250E0,-4.811874905E0,1.010108609E1,-1.735210215E0,1.132241294E1
7.612384250E0,-5.514703209E0,1.021919634E1,-2.460534074E0,1.187005279E1
7.622410250E0,-5.322573059E0,1.061320395E1,-2.556786261E0,1.214524755E1
7.632437250E0,-5.280773653E0,1.078903674E1,-2.249713883E0,1.222092863E1
7.642464250E0,-5.149503661E0,1.043811258E1,-1.796982687E0,1.177712737E1
7.652490250E0,-4.268595480E0,1.028924481E1,-1.715227063E0,1.127082384E1
7.662517250E0,-3.979853539E0,1.063492285E1,-1.943599134E0,1.152034703E1
7.672543250E0,-4.176831617E0,1.122838483E1,-1.922917532E0,1.213343150E1
7.682570250E0,-4.349336173E0,1.159309204E1,-1.408072679E0,1.246190904E1
7.692597250E0,-4.567692548E0,1.146260324E1,-7.651875441E-1,1.236287184E1
7.702623250E0,-4.693619353E0,1.080812556E1,-5.866419370E-1,1.179787224E1
7.712650250E0,-4.460294399E0,9.741408652E0,-2.138328226E-1,1.071610905E1
7.722676250E0,-3.833324654E0,8.552070370E0,2.356826250E-1,9.374851029E0
7.732703250E0,-3.018103217E0,7.383949880E0,2.679755545E-1,7.981445593E0
7.742730250E0,-2.122036421E0,6.140404401E0,5.676618019E-1,6.521490988E0
7.752756250E0,-1.296165158E0,4.735502082E0,1.071712768E0,5.025295249E0
7.762783250E0,-6.302278134E-1,3.279212093E0,1.155842653E0,3.533608819E0
7.772810250E0,-2.184255181E-1,1.711720342E0,7.857231847E-1,1.896063596E0
7.782836250E0,-9.248745650E-2,2.456204796E-1,5.326872662E-1,5.938342136E-1
7.792863250E0,-1.658134411E-1,-9.531481916E-1,5.192152814E-1,1.097984554E0
7.802889250E0,-2.944209029E-1,-2.260124266E0,3.926698402E-1,2.312798082E0
7.812916250E0,-4.641367757E-1,-3.662340959E0,2.475102997E-1,3.699922377E0
7.822943250E0,-6.796328388E-1,-5.288703647E0,4.054060992E-1,5.347582740E0
7.832969250E0,-6.786247788E-1,-6.981460884E0,8.600750633E-1,7.066898667E0
7.842996250E0,-3.412090800E-1,-8.622737480E0,1.367513029E0,8.737168716E0
7.853022250E0,4.050940771E-1,-1.018167709E1,1.324330026E0,1.027543185E1
7.863049250E0,1.403785793E0,-1.163767355E1,6.486550212E-1,1.173996651E1
7.873076250E0,2.311472467E0,-1.287760370E1,-1.328674142E-1,1.308408330E1
7.883102250E0,2.905196114E0,-1.379712514E1,-7.314352226E-1,1.411863393E1
7.893129250E0,3.134705468E0,-1.424276483E1,-7.832895005E-1,1.460466606E1
7.903156250E0,3.085604936E0,-1.390932385E1,-6.359911215E-1,1.426165252E1
7.913182250E0,2.429126633E0,-1.224220081E1,-3.301220648E-1,1.248523598E1
7.923209250E0,1.715236858E0,-1.001637631E1,-2.345774281E-1,1.016488359E1
7.933235250E0,1.370548903E0,-8.464997143E0,-1.856361783E-1,8.577239750E0
7.943262250E0,7.886622877E-1,-7.305826986E0,-8.856892666E-2,7.348805386E0
7.953289250E0,1.538262105E-1,-6.465066372E0,1.261618638E-1,6.468126662E0
7.963315250E0,-2.761164135E-1,-6.084427836E0,2.861556808E-1,6.097408256E0
7.973342250E0,-4.798535067E-1,-6.326262828E0,4.946908164E-1,6.363692306E0
7.983368250E0,-4.905411936E-1,-7.021927709E0,9.106687546E-1,7.097705051E0
7.993395250E0,-2.815193139E-1,-7.780901563E0,1.428692300E0,7.915986606E0
8.003422250E0,2.072547050E-1,-8.537627748E0,1.620827129E0,8.692590100E0
8.013448250E0,8.283596925E-1,-9.216632157E0,1.553071933E0,9.383204172E0
8.023475250E0,1.448248752E0,-9.771528829E0,1.285488142E0,9.961560112E0
8.033501250E0,1.974675039E0,-1.016700175E1,8.105082893E-1,1.038865679E1
8.043528250E0,2.347733098E0,-1.022845599E1,3.166477776E-1,1.049921085E1
8.053555250E0,2.695369657E0,-9.918306806E0,1.070719838E-1,1.027858414E1
8.063581250E0,3.010233157E0,-9.197947379E0,-2.156265291E-1,9.680404664E0
8.073608250E0,3.195520311E0,-8.165888674E0,-1.546073985E0,8.904124474E0
8.083635250E0,3.308358709E0,-6.857282980E0,-4.781766422E0,8.990709501E0
8.093661250E0,2.811437180E0,-5.188995171E0,-7.903528200E0,9.863853604E0
8.103688250E0,1.952114580E0,-3.120349091E0,-5.192981218E0,6.365091022E0
8.113714250E0,8.541410896E-1,-5.125189769E-1,2.540626895E0,2.728922447E0
8.123741250E0,-1.029955462E0,2.392087153E0,5.971764854E0,6.514972346E0
8.133768250E0,-2.792949746E0,5.496932352E0,5.440143024E0,8.222651013E0
8.143794250E0,-3.921410034E0,8.679116918E0,1.418787117E0,9.628991848E0
8.153821250E0,-5.339462156E0,1.052922390E1,-3.343913873E0,1.227013333E1
8.163847250E0,-6.640867589E0,9.425664269E0,-2.273092221E0,1.175207290E1
8.173874792E0,-6.573859667E0,6.010680998E0,2.588724922E0,9.276066715E0
8.183901792E0,-4.699218355E0,3.553715479E0,1.548208073E0,6.091674244E0
8.193927792E0,-3.121734589E0,2.505165287E0,-1.440739903E0,4.254034723E0
8.203954792E0,-2.744016737E0,2.421631379E0,-9.384699261E-1,3.778181069E0
8.213981792E0,-3.443886058E0,3.983201070E0,-1.585651449E0,5.499139248E0
8.224007792E0,-4.630177648E0,6.861229851E0,-3.532673689E0,8.999711302E0
8.234034792E0,-5.572733316E0,9.483284487E0,-2.119075391E0,1.120171959E1
8.244060792E0,-6.345782588E0,1.121623665E1,-1.018216519E0,1.292709117E1
8.254087792E0,-7.005038611E0,1.154482094E1,-2.085718342E0,1.366395541E1
8.264114792E0,-6.861674824E0,9.820920260E0,-2.291833717E0,1.219776856E1
8.274140792E0,-5.355265426E0,7.569321234E0,-1.976163594E0,9.480438507E0
8.284167792E0,-4.403850349E0,6.300174891E0,-1.780003542E0,7.890152987E0
8.294193792E0,-3.679670352E0,5.862752874E0,-1.445349848E0,7.071130132E0
8.304220792E0,-2.989013026E0,6.114069711E0,-1.211789836E0,6.912632054E0
8.314247792E0,-2.813186082E0,6.952306666E0,-1.192481014E0,7.594115807E0
8.324273792E0,-2.876227838E0,8.195811800E0,-1.259037677E0,8.776627684E0
8.334300792E0,-2.852599824E0,9.657208747E0,-1.074832989E0,1.012690834E1
8.344327792E0,-2.694517425E0,1.081491885E1,-6.770890076E-1,1.116608004E1
8.354353792E0,-2.474592827E0,1.135421925E1,-5.025636537E-1,1.163161531E1
8.364380792E0,-2.157156553E0,1.121490115E1,-6.724531889E-1,1.144025898E1
8.374406792E0,-1.805670772E0,1.040149264E1,-7.272544634E-1,1.058207896E1
8.384433792E0,-1.349779447E0,9.294335221E0,-2.710946055E-1,9.395747125E0
8.394460792E0,-8.026505086E-1,8.135659738E0,2.474705386E-1,8.178902670E0
8.404486792E0,-3.229174545E-1,7.005046213E0,5.731266828E-1,7.035866849E0
8.414513792E0,-1.715485364E-2,5.913122544E0,8.986026596E-1,5.981036636E0
8.424540792E0,1.382483509E-1,4.841699213E0,9.759260201E-1,4.941011584E0
8.434566792E0,6.860450417E-2,3.695927950E0,5.986589885E-1,3.744727303E0
8.444593792E0,-1.558920318E-1,2.405124105E0,3.947255020E-1,2.442280186E0
8.454619792E0,-4.136010450E-1,1.147470464E0,6.085256533E-1,1.363105924E0
8.464646792E0,-4.222060999E-1,-1.930680442E-1,4.958918345E-1,6.792952024E-1
8.474673792E0,-3.392351331E-1,-1.818302804E0,1.365581401E-1,1.854711214E0
8.484699792E0,-3.332845679E-1,-3.512876186E0,-1.736739993E-1,3.532922354E0
8.494726792E0,-1.504266393E-1,-5.121848670E0,8.077109814E-2,5.124693742E0
8.504752792E0,1.619808836E-1,-6.793380514E0,6.098716823E-1,6.822624135E0
8.514779792E0,4.938888708E-1,-8.451066152E0,8.394648707E-1,8.507005736E0
8.524806792E0,7.933508775E-1,-9.969561160E0,6.260848419E-1,1.002065555E1
8.534832792E0,1.076471598E0,-1.137166032E1,3.479842122E-1,1.142779693E1
8.544859792E0,1.319924149E0,-1.246384068E1,3.294075716E-1,1.253786400E1
8.554885792E0,1.613471916E0,-1.321855952E1,5.111542368E-1,1.332647313E1
8.564912792E0,1.853733715E0,-1.347551424E1,7.524968934E-1,1.362321784E1
8.574939792E0,1.765151468E0,-1.295706502E1,1.041317845E0,1.311814150E1
8.584965792E0,1.066040092E0,-1.154370997E1,1.143966812E0,1.164913479E1
8.594992792E0,1.112024204E-1,-9.838354318E0,8.245299125E-1,9.873471084E0
8.605019792E0,2.418561883E-2,-8.562569631E0,3.714665937E-1,8.570657563E0
8.615045792E0,1.163812993E-1,-7.587583258E0,8.592602173E-2,7.588962221E0
8.625072792E0,-2.614472844E-2,-6.806675913E0,-1.073853214E-1,6.807573146E0
8.635098792E0,-8.713403821E-2,-6.308446362E0,-2.533493292E-1,6.314132856E0
8.645125792E0,-5.189403892E-2,-6.083772363E0,-3.159601450E-1,6.092192542E0
8.655152792E0,4.996124178E-2,-6.248634608E0,-3.696609735E-1,6.259758768E0
8.665178792E0,2.241053572E-1,-6.830531384E0,-3.946706843E-1,6.845593265E0
8.675205792E0,5.846588539E-1,-7.595007468E0,-1.607797559E-1,7.619174138E0
8.685231792E0,1.113098776E0,-8.399273270E0,3.396939933E-1,8.479514865E0
8.695258792E0,1.675740378E0,-9.190010954E0,8.827225721E-1,9.383155454E0
8.705285792E0,2.125280749E0,-9.859067495E0,1.285275303E0,1.016710198E1
8.715311792E0,2.634393430E0,-1.029766363E1,1.217988981E0,1.069885051E1
8.725338792E0,3.311256882E0,-1.029573405E1,9.509795324E-1,1.085683765E1
8.735364792E0,4.109556477E0,-9.829737861E0,5.828889748E-1,1.067014341E1
8.745391792E0,4.545940613E0,-8.961209990E0,-5.097613569E-1,1.006124829E1
8.755418792E0,4.393297002E0,-7.596390919E0,-2.471028657E0,9.116589064E0
8.765444792E0,3.632779191E0,-5.947638658E0,-5.266264372E0,8.735275078E0
8.775471792E0,2.451218290E0,-4.032249854E0,-5.927911906E0,7.576783589E0
8.785498792E0,8.273886162E-1,-1.777850597E0,1.810483615E-1,1.969290018E0
8.795524792E0,-1.303738764E0,9.525289714E-1,4.327005072E0,4.618443363E0
8.805551792E0,-3.025940824E0,4.224406317E0,1.969489582E0,5.557051000E0
8.815577792E0,-3.677096992E0,8.650514678E0,-6.347548740E-1,9.421006328E0
8.825604792E0,-5.442915189E0,1.386158952E1,-1.270582420E0,1.494601517E1
8.835631792E0,-8.478537540E0,1.647394538E1,1.669312241E0,1.860277072E1
8.845657792E0,-1.003871033E1,1.317244955E1,2.437882107E0,1.674014341E1
8.855684792E0,-8.038707640E0,6.656222377E0,1.977789119E0,1.062251226E1
8.865710792E0,-3.276911506E0,1.477031817E0,1.106217334E0,3.760783003E0
8.875737792E0,-5.079891390E-1,-1.794163159E0,-8.661221807E-1,2.056025787E0
8.885764792E0,-8.859715775E-1,-3.487816190E0,-3.457706537E0,4.990545251E0
8.895790792E0,-2.999227235E0,-2.035149720E0,-4.265024586E0,5.597109353E0
8.905817792E0,-4.346457589E0,2.193402858E0,-3.288649499E0,5.875195758E0
8.915843792E0,-4.830137513E0,6.904456562E0,-1.732593148E0,8.602536128E0
8.925870792E0,-5.690831285E0,1.098783973E1,-4.831158145E-1,1.238352065E1
8.935897792E0,-6.477929662E0,1.382290668E1,-1.043445866E-1,1.526588385E1
8.945923792E0,-6.594642425E0,1.307667332E1,-7.634475589E-2,1.464563151E1
8.955950792E0,-5.060069913E0,8.886663253E0,-1.930477105E0,1.040691276E1
8.965977792E0,-4.279918029E0,5.851715670E0,-2.185120862E0,7.571989685E0
8.976003792E0,-3.987662496E0,4.656759383E0,-2.365144937E0,6.571207705E0
8.986030792E0,-3.574799954E0,4.886450293E0,-2.389817848E0,6.509056808E0
8.996056792E0,-3.500544993E0,5.993962054E0,-1.472305512E0,7.095708554E0
9.006083792E0,-3.856732228E0,7.571761277E0,-8.545950528E-1,8.540274294E0
9.016110792E0,-4.130933313E0,9.238363334E0,-9.088631344E-1,1.016061018E1
9.026136792E0,-3.997892492E0,1.041044590E1,-8.556066942E-1,1.118447992E1
9.036163792E0,-3.649942523E0,1.092624750E1,-1.012307250E0,1.156415716E1
9.046189792E0,-3.320918528E0,1.075327517E1,-9.838780873E-1,1.129732016E1
9.056216792E0,-2.885780434E0,1.011234666E1,-5.405772798E-1,1.052993388E1
9.066243792E0,-2.443446464E0,9.159800144E0,9.245690480E-3,9.480108374E0
9.076269792E0,-2.106688357E0,8.118764793E0,3.826909089E-1,8.396364090E0
9.086296792E0,-1.818404838E0,7.047404028E0,6.220093326E-1,7.304751556E0
9.096322792E0,-1.499400633E0,5.905938655E0,8.963208568E-1,6.158872034E0
9.106349792E0,-1.233911607E0,4.872400019E0,1.033806365E0,5.131430151E0
9.116376792E0,-9.751030245E-1,4.025572919E0,8.216975212E-1,4.222706484E0
9.126402792E0,-7.660131709E-1,3.155004954E0,6.869029013E-1,3.318534019E0
9.136429792E0,-5.743741862E-1,2.122831643E0,6.197697759E-1,2.284827010E0
9.146456792E0,-5.391831574E-1,9.225584829E-1,2.800465465E-1,1.104653203E0
9.156482792E0,-3.643414691E-1,-4.619721365E-1,-2.233952129E-1,6.293396397E-1
9.166509792E0,-1.220328525E-2,-1.958164694E0,-5.589915140E-1,2.036425644E0
9.176535500E0,1.133136307E-1,-3.462212402E0,-4.858884545E-1,3.497976884E0
9.186562500E0,1.014469989E-1,-5.107114272E0,-1.255455307E-1,5.109664310E0
9.196589500E0,1.044064209E-1,-6.915137086E0,2.720335221E-1,6.921273283E0
9.206615500E0,1.193559971E-1,-8.764872183E0,5.331631565E-1,8.781884375E0
9.216642500E0,4.296721172E-1,-1.042862723E1,6.398841977E-1,1.045707109E1
9.226668500E0,9.034866927E-1,-1.183401838E1,5.971387490E-1,1.188346977E1
9.236695500E0,1.341399510E0,-1.305865221E1,1.866162264E-1,1.312869284E1
9.246722500E0,1.771031282E0,-1.390472209E1,-4.300954191E-1,1.402365253E1
9.256748500E0,1.916852946E0,-1.424131706E1,-7.952447176E-1,1.439172856E1
9.266775500E0,1.703545350E0,-1.361376347E1,-5.529407787E-1,1.373107301E1
9.276801500E0,9.395665714E-1,-1.195735019E1,1.645523886E-2,1.199421859E1
9.286828500E0,2.020321547E-1,-1.011239694E1,2.283466351E-1,1.011699220E1
9.296855500E0,5.136632770E-2,-8.734960751E0,2.530078518E-1,8.738775131E0
9.306881500E0,-1.388400526E-1,-7.778005437E0,2.121977949E-1,7.782138077E0
9.316908500E0,-4.628331025E-1,-6.987525031E0,-2.131894370E-2,7.002869058E0
9.326934500E0,-7.395572244E-1,-6.400462825E0,-3.607650197E-1,6.453140372E0
9.336961500E0,-8.692988268E-1,-6.214920732E0,-6.100774312E-1,6.305007108E0
9.346988500E0,-7.954865000E-1,-6.523330368E0,-6.220314789E-1,6.601027270E0
9.357014500E0,-5.623947763E-1,-7.153753771E0,-4.246622229E-1,7.188380826E0
9.367041500E0,-9.521986037E-2,-7.885227585E0,9.885068893E-2,7.886422024E0
9.377068500E0,6.334663669E-1,-8.466125071E0,8.777500999E-1,8.535045319E0
9.387094500E0,1.485563782E0,-8.866779796E0,1.508548894E0,9.116051967E0
9.397121500E0,2.245167819E0,-9.213607392E0,2.017007564E0,9.695342141E0
9.407147500E0,2.862196274E0,-9.386279179E0,2.073782859E0,1.002970487E1
9.417174500E0,3.545708302E0,-9.360956642E0,1.709401921E0,1.015488117E1
9.427201500E0,3.858909146E0,-9.221927395E0,1.200700153E0,1.006860495E1
9.437227500E0,3.857864833E0,-9.030029379E0,4.651519255E-1,9.830611272E0
9.447254500E0,3.953707715E0,-8.658204351E0,-1.095494564E0,9.581044599E0
9.457280500E0,4.156558735E0,-7.700279569E0,-3.336527671E0,9.365025513E0
9.467307500E0,3.897506032E0,-6.345427662E0,-4.868588219E0,8.897086980E0
9.477334500E0,2.798546408E0,-4.765734526E0,-5.480064304E0,7.783006639E0
9.487360500E0,1.456548728E0,-2.658099797E0,-2.172734120E0,3.729316597E0
9.497387500E0,-3.795766819E-1,2.819556624E-1,3.179386089E0,3.214354267E0
9.507413500E0,-2.370186991E0,3.525638904E0,2.093775659E0,4.736223449E0
9.517440500E0,-2.876446816E0,6.910559886E0,7.426197767E-1,7.522052137E0
9.527467500E0,-3.143739708E0,1.033952034E1,1.484682899E0,1.090839418E1
9.537493500E0,-5.474290178E0,1.313219147E1,1.703621656E0,1.432915324E1
9.547520500E0,-7.821600523E0,1.360549902E1,3.681920068E-1,1.569785347E1
9.557546500E0,-7.673542006E0,1.069751963E1,-2.400868209E-1,1.316730097E1
9.567573500E0,-4.675015267E0,7.286017789E0,1.506077568E-1,8.658204529E0
9.577600500E0,-2.996422326E0,4.833133627E0,-5.685902667E-1,5.714982266E0
9.587626500E0,-3.332382579E0,3.378467410E0,-2.217305252E0,5.237867722E0
9.597653500E0,-4.287015964E0,3.291664324E0,-2.720665004E0,6.051080727E0
9.607680500E0,-4.773877943E0,4.240869738E0,-1.904482577E0,6.663478118E0
9.617706500E0,-4.669367149E0,5.566827629E0,-2.148451803E0,7.576833413E0
9.627733500E0,-5.210885392E0,6.677620847E0,-2.707514616E0,8.892389001E0
9.637759500E0,-5.800762448E0,7.661057031E0,-2.948543862E0,1.005159444E1
9.647786500E0,-6.227523821E0,8.332270026E0,-2.333066966E0,1.066076818E1
9.657813500E0,-6.428845210E0,8.295766443E0,-1.455813879E0,1.059571544E1
9.667839500E0,-6.465493219E0,8.229358445E0,-1.830451126E0,1.062428794E1
9.677866500E0,-6.623553398E0,8.393749990E0,-1.980556168E0,1.087424026E1
9.687892500E0,-6.489214788E0,8.583024945E0,-1.570125776E0,1.087398366E1
9.697919500E0,-6.171660692E0,8.706621636E0,-1.569939834E0,1.078699991E1
9.707946500E0,-6.024363483E0,8.589873789E0,-1.658063221E0,1.062205539E1
9.717972500E0,-5.563102952E0,8.209596611E0,-1.778615267E0,1.007517063E1
9.727999500E0,-4.969234003E0,7.758926557E0,-1.900267904E0,9.407722679E0
9.738025500E0,-4.232009160E0,7.554202089E0,-1.497071833E0,8.787325805E0
9.748052500E0,-3.345104367E0,7.652669785E0,-1.037012905E0,8.415965413E0
9.758079500E0,-2.771381122E0,7.912217163E0,-8.826594222E-1,8.429876714E0
9.768105500E0,-2.252140478E0,8.092054712E0,-5.824528456E-2,8.399814207E0
9.778132500E0,-1.489647477E0,8.215110535E0,5.504358315E-1,8.367202060E0
9.788158500E0,-8.749919683E-1,8.247548549E0,3.905951750E-1,8.303025509E0
9.798185500E0,-6.966179770E-1,8.007839019E0,2.794640176E-1,8.042938673E0
9.808212500E0,-6.710463488E-1,7.443386827E0,4.926733808E-1,7.489795573E0
9.818238500E0,-7.020845389E-1,6.569184233E0,6.840622509E-1,6.641915789E0
9.828265500E0,-7.119878219E-1,5.201536864E0,8.233874396E-1,5.314214832E0
9.838291500E0,-7.373682462E-1,3.353813794E0,8.432458265E-1,3.535935862E0
9.848318500E0,-8.124527809E-1,1.360558789E0,5.407410749E-1,1.674395608E0
9.858345500E0,-8.454414560E-1,-8.146679986E-1,-5.338968359E-2,1.175289608E0
9.868371500E0,-7.748160079E-1,-2.925002972E0,-4.941727531E-1,3.065972756E0
9.878398500E0,-6.376241027E-1,-4.898168113E0,-6.866409460E-1,4.986992195E0
9.888425500E0,-4.406333077E-1,-6.902817587E0,-3.267622912E-1,6.924580995E0
9.898451500E0,-1.353570490E-1,-8.840941535E0,6.249339636E-1,8.864034703E0
9.908478500E0,2.500972541E-1,-1.063548184E1,1.423701117E0,1.073326360E1
9.918504500E0,7.501893628E-1,-1.229350428E1,1.432732726E0,1.239942557E1
9.928531500E0,1.345163217E0,-1.362931823E1,1.133351850E0,1.374235300E1
9.938558500E0,1.884557166E0,-1.460379999E1,5.991175564E-1,1.473707813E1
9.948584500E0,2.295190895E0,-1.516256577E1,3.547553245E-1,1.533939872E1
9.958611500E0,2.473133362E0,-1.521316991E1,6.179127002E-1,1.542526316E1
9.968637500E0,2.300089108E0,-1.423874896E1,1.088715302E0,1.446435906E1
9.978664500E0,1.522895330E0,-1.223574782E1,1.167211833E0,1.238527829E1
9.988691500E0,6.813444650E-1,-1.006274473E1,8.920161366E-1,1.012515454E1
9.998717500E0,5.080845217E-1,-8.416093955E0,7.357282484E-1,8.463455760E0
1.000874450E1,3.510359106E-1,-7.143815258E0,7.384986591E-1,7.190459159E0
1.001877050E1,9.448486537E-2,-6.045451466E0,5.180387485E-1,6.068342027E0
1.002879750E1,-1.369838174E-1,-5.267395808E0,-3.914241275E-2,5.269322091E0
1.003882450E1,-1.571920871E-1,-4.967775123E0,-5.507749335E-1,5.000685158E0
1.004885050E1,-1.913515940E-2,-5.421816096E0,-7.457818779E-1,5.472901108E0
1.005887750E1,2.176021571E-1,-6.297974584E0,-4.741647140E-1,6.319546402E0
1.006890350E1,7.176257072E-1,-7.196357753E0,6.832241256E-2,7.232373021E0
1.007893050E1,1.325519934E0,-8.069500247E0,5.875703287E-1,8.198724061E0
1.008895750E1,1.925766442E0,-8.782216194E0,9.854102039E-1,9.044718400E0
1.009898350E1,2.435558424E0,-9.290414663E0,1.265006515E0,9.687310820E0
1.010901050E1,2.789635836E0,-9.611561873E0,1.294313929E0,1.009155282E1
1.011903650E1,2.992808162E0,-9.735837425E0,1.065976650E0,1.024108086E1
1.012906350E1,3.098955883E0,-9.562287971E0,6.281125101E-1,1.007151449E1
1.013909050E1,3.024624616E0,-9.143547224E0,-1.186867833E-1,9.631557322E0
1.014911650E1,2.818535700E0,-8.454859825E0,-1.078901262E0,8.977350728E0
1.015914350E1,2.784920934E0,-7.486955016E0,-1.874458294E0,8.205112669E0
1.016916950E1,2.817627627E0,-6.253138134E0,-2.482593280E0,7.294109360E0
1.017919625E1,2.676467948E0,-4.842492095E0,-3.473968813E0,6.533120976E0
1.018922325E1,2.398498040E0,-3.145294483E0,-4.408908191E0,5.923186783E0
1.019924925E1,1.844366476E0,-1.049072349E0,-8.949571399E-1,2.302865340E0
1.020927625E1,7.784488830E-1,1.339105940E0,3.219322864E0,3.572565897E0
1.021930225E1,-7.258052310E-1,3.975248272E0,1.918221195E0,4.473138117E0
1.022932925E1,-2.512890336E0,6.572066326E0,1.932036996E-1,7.038749981E0
1.023935625E1,-4.845497564E0,9.193964256E0,-1.436780315E0,1.049152816E1
1.024938225E1,-7.543405205E0,1.150425646E1,6.495883830E-1,1.377217644E1
1.025940925E1,-9.101439085E0,1.242849894E1,3.741661363E0,1.585256475E1
1.026943525E1,-8.183054345E0,1.070562387E1,1.745686233E0,1.358750092E1
1.027946225E1,-4.914429220E0,6.199157224E0,1.003906994E-1,7.911462768E0
1.028948925E1,-2.781797059E0,2.675012283E0,-1.231673877E0,4.051062346E0
1.029951525E1,-3.396648157E0,1.959060488E0,-3.378226504E0,5.175669137E0
1.030954225E1,-4.273024746E0,3.314449754E0,-3.087860792E0,6.227294912E0
1.031956825E1,-4.992614679E0,5.742336484E0,-2.636672090E0,8.053115506E0
1.032959525E1,-6.038352361E0,8.268545315E0,-2.491994433E0,1.053757928E1
1.033962225E1,-7.011601526E0,1.000314757E1,-1.424317267E0,1.229854450E1
1.034964825E1,-7.261312718E0,1.029342908E1,-1.242126214E0,1.265797070E1
1.035967525E1,-6.901844026E0,8.828551869E0,-2.148727791E0,1.141033786E1
1.036970225E1,-6.047189843E0,6.867171206E0,-2.302406506E0,9.435444934E0
1.037972825E1,-5.252890620E0,5.636280856E0,-2.498072029E0,8.099437364E0
1.038975525E1,-4.475922545E0,5.497497777E0,-2.846188352E0,7.639185334E0
1.039978125E1,-3.877741274E0,6.617754714E0,-2.414376008E0,8.041191849E0
1.040980825E1,-3.845834187E0,8.280906329E0,-1.722156891E0,9.291376356E0
1.041983525E1,-4.085122717E0,9.778286456E0,-1.456000990E0,1.069687116E1
1.042986125E1,-4.492167864E0,1.073177846E1,-1.211131439E0,1.169690046E1
1.043988825E1,-4.949762775E0,1.087125795E1,-1.257399433E0,1.201105550E1
1.044991425E1,-5.109710435E0,1.037414404E1,-1.316900408E0,1.163899618E1
1.045994125E1,-4.886702600E0,9.579798628E0,-1.052649529E0,1.080557611E1
1.046996825E1,-4.301089042E0,8.804614538E0,-7.929375525E-1,9.831040335E0
1.047999425E1,-3.476751796E0,8.139057555E0,-8.438948674E-1,8.890681610E0
1.049002125E1,-2.444125910E0,7.586392765E0,-3.320727324E-1,7.977303990E0
1.050004725E1,-1.261195592E0,7.171903528E0,-7.730472252E-2,7.282361606E0
1.051007425E1,-4.269861987E-1,6.637477958E0,-1.247513692E-1,6.652367530E0
1.052010125E1,-7.829304814E-2,5.683017651E0,9.993140057E-2,5.684435390E0
1.053012725E1,1.208017212E-1,4.451046735E0,2.916953695E-1,4.462229967E0
1.054015425E1,2.185119107E-1,2.949093500E0,2.703575639E-1,2.969510590E0
1.055018025E1,1.459523499E-1,1.295320820E0,8.735257789E-2,1.306441192E0
1.056020725E1,-1.856894428E-1,-4.715604007E-1,-9.852558374E-3,5.068992539E-1
1.057023425E1,-5.351713827E-1,-2.439360137E0,-8.399759173E-2,2.498788083E0
1.058026025E1,-9.090669098E-1,-4.359714396E0,2.964012086E-1,4.463335741E0
1.059028725E1,-1.265167167E0,-6.121412644E0,1.055506552E0,6.339277152E0
1.060031325E1,-1.190459632E0,-7.835875331E0,1.259711276E0,8.025273131E0
1.061034025E1,-9.263392925E-1,-9.409098523E0,9.683644009E-1,9.504050142E0
1.062036725E1,-3.436994822E-1,-1.093941543E1,3.323123952E-1,1.094985711E1
1.063039325E1,5.575844912E-1,-1.226018216E1,-2.046830264E-1,1.227456159E1
1.064042025E1,1.447208678E0,-1.322700875E1,-5.729475753E-1,1.331827475E1
1.065044625E1,2.185604426E0,-1.381334064E1,-7.161564481E-1,1.400350407E1
1.066047325E1,2.832038090E0,-1.386536682E1,-5.176375930E-1,1.416110114E1
1.067050025E1,2.874133658E0,-1.322153341E1,1.009700853E-2,1.353032491E1
1.068052625E1,1.949399718E0,-1.194890915E1,3.822453511E-1,1.211291462E1
1.069055325E1,1.550785964E0,-1.027888705E1,1.886522269E-1,1.039692483E1
1.070057925E1,1.331126537E0,-8.700294363E0,1.019099522E-1,8.802125056E0
1.071060625E1,6.906810797E-1,-7.633681537E0,8.481156070E-2,7.665332815E0
1.072063325E1,2.597932898E-1,-6.843220426E0,-2.575345835E-2,6.848198420E0
1.073065925E1,2.776316464E-2,-6.307565771E0,-1.212911332E-1,6.308792935E0
1.074068625E1,-3.024852365E-2,-6.160053384E0,1.131085396E-2,6.160138035E0
1.075071225E1,5.016216673E-2,-6.447600154E0,3.770787879E-1,6.458811996E0
1.076073925E1,2.049726829E-1,-7.046525191E0,1.009713571E0,7.121450173E0
1.077076625E1,6.277936175E-1,-7.608261936E0,1.703928927E0,7.821965757E0
1.078079225E1,1.124929593E0,-8.112033479E0,2.153557591E0,8.468079124E0
1.079081925E1,1.601009892E0,-8.609183634E0,2.268214474E0,9.045776496E0
1.080084525E1,2.054468336E0,-9.003245038E0,2.120303307E0,9.474964247E0
1.081087225E1,2.491707920E0,-9.306081693E0,1.880145296E0,9.815636055E0
1.082089925E1,2.954899201E0,-9.485094784E0,1.425657595E0,1.003648105E1
1.083092525E1,3.200571721E0,-9.579017440E0,7.223018718E-1,1.012536194E1
1.084095225E1,3.318756228E0,-9.480195987E0,6.852900200E-3,1.004431709E1
1.085097825E1,3.451892066E0,-9.113128254E0,-7.928917980E-1,9.777184810E0
1.086100525E1,3.589812096E0,-8.641997039E0,-2.051934153E0,9.580255606E0
1.087103225E1,3.653740289E0,-7.854816216E0,-3.416633356E0,9.312429295E0
1.088105825E1,3.724546562E0,-6.490018196E0,-5.081750804E0,9.045262545E0
1.089108525E1,3.180820118E0,-4.524338075E0,-6.303093821E0,8.385478123E0
1.090111125E1,1.666553817E0,-2.045415677E0,-3.528052050E0,4.405482741E0
1.091113825E1,-7.316618022E-1,1.246093111E0,3.257747257E0,3.563845427E0
1.092116525E1,-3.406413300E0,5.164236891E0,3.961466385E0,7.346169761E0
1.093119125E1,-5.087958208E0,8.256067942E0,2.718371726E0,1.007171889E1
1.094121825E1,-4.541064328E0,9.684562021E0,-2.147892809E-1,1.069851117E1
1.095124425E1,-4.309655213E0,9.301144888E0,-2.022789145E0,1.044873678E1
1.096127125E1,-5.397543719E0,6.789240686E0,1.439893227E0,8.792073691E0
1.097129825E1,-5.476291680E0,4.895954942E0,8.737893422E-1,7.397543726E0
1.098132425E1,-4.986369853E0,3.478714998E0,-2.224756798E0,6.474170616E0
1.099135125E1,-4.065026129E0,2.962222838E0,-9.098032205E-1,5.111452188E0
1.100137725E1,-4.139136079E0,4.260881249E0,-4.758931875E-1,5.959364968E0
1.101140425E1,-5.303341566E0,6.275713649E0,-1.498727911E0,8.352017656E0
1.102143125E1,-7.029531428E0,8.364212195E0,-4.735236765E-1,1.093611368E1
1.103145725E1,-8.656010476E0,9.843944256E0,-2.550042374E-1,1.311086508E1
1.104148425E1,-9.041689312E0,9.547429027E0,-1.260821078E0,1.320966375E1
1.105151025E1,-7.888469281E0,7.501576563E0,-1.995845321E0,1.106729403E1
1.106153725E1,-6.163118495E0,4.879687988E0,-2.517688268E0,8.254340595E0
1.107156425E1,-5.699165322E0,3.148688207E0,-2.778036715E0,7.078997865E0
1.108159025E1,-5.041528392E0,3.223720847E0,-2.921199943E0,6.659038500E0
1.109161725E1,-3.919921918E0,4.788008909E0,-2.447771795E0,6.654502530E0
1.110164325E1,-3.567339492E0,6.690210487E0,-1.879471697E0,7.811353357E0
1.111167025E1,-3.704428632E0,8.734263178E0,-1.677714690E0,9.634566484E0
1.112169725E1,-4.355417862E0,1.031135080E1,-1.192951130E0,1.125685357E1
1.113172325E1,-5.063160751E0,1.081965276E1,-6.912459938E-1,1.196571367E1
1.114175025E1,-5.715190201E0,1.036944288E1,-9.632328844E-1,1.187924923E1
1.115177625E1,-5.804183069E0,9.344228343E0,-7.759442282E-1,1.102747631E1
1.116180325E1,-5.064357092E0,8.153360429E0,-3.293477107E-1,9.603825746E0
1.117183025E1,-3.926119089E0,6.998041833E0,-2.025664075E-1,8.026707529E0
1.118185613E1,-2.840398439E0,6.089209104E0,-3.676356442E-2,6.719202510E0
1.119188312E1,-2.123291234E0,5.630096841E0,-6.172218516E-2,6.017488324E0
1.120190912E1,-1.835146294E0,5.778174069E0,6.346684813E-2,6.062927142E0
1.121193612E1,-1.728984831E0,6.441336617E0,4.388333885E-1,6.683769947E0
1.122196312E1,-1.891773361E0,7.191451939E0,8.681431246E-1,7.486618725E0
1.123198913E1,-2.142215455E0,7.506582949E0,1.340004072E0,7.920447307E0
1.124201613E1,-2.042757825E0,7.238824911E0,1.411674564E0,7.652860295E0
1.125204212E1,-1.509270440E0,6.421890532E0,9.059162108E-1,6.658773119E0
1.126206912E1,-8.311884293E-1,5.061665034E0,5.892403300E-1,5.163190030E0
1.127209612E1,-5.797865152E-2,3.385172412E0,3.747258683E-1,3.406343092E0
1.128212212E1,7.964686860E-1,1.621119490E0,1.034910758E-1,1.809171404E0
1.129214913E1,1.387290213E0,-2.599742246E-1,-3.493080219E-1,1.454020917E0
1.130217512E1,1.595965645E0,-2.169093059E0,-8.692646205E-1,2.829786568E0
1.131220212E1,1.462076393E0,-4.101441126E0,-8.955922206E-1,4.445398983E0
1.132222912E1,1.236669738E0,-6.004917982E0,-2.105055376E-1,6.134550073E0
1.133225512E1,1.098841656E0,-8.001631030E0,3.714384540E-1,8.085265528E0
1.134228212E1,9.989535248E-1,-1.004500194E1,5.771225238E-1,1.011103568E1
1.135230813E1,1.019760257E0,-1.195441605E1,3.942590404E-1,1.200430816E1
1.136233512E1,1.404973947E0,-1.344418837E1,1.917243540E-1,1.351876144E1
1.137236212E1,1.893669613E0,-1.445700447E1,2.722463608E-3,1.458049966E1
1.138238812E1,2.306699239E0,-1.517697915E1,-3.872890862E-1,1.535615676E1
1.139241512E1,2.425296852E0,-1.529245932E1,-7.200237235E-1,1.550031649E1
1.140244113E1,1.941670430E0,-1.444237474E1,-4.590274056E-1,1.457953972E1
1.141246812E1,4.926651216E-1,-1.223469181E1,2.959159080E-1,1.224818227E1
1.142249512E1,-3.100177659E-1,-9.739243428E0,7.116249291E-1,9.770127103E0
1.143252112E1,-2.434367638E-1,-8.156277605E0,1.057024562E0,8.228087673E0
1.144254812E1,-3.510060167E-1,-7.191065438E0,1.286937082E0,7.313742846E0
1.145257413E1,-4.752452429E-1,-6.554346923E0,9.671879411E-1,6.642347036E0
1.146260113E1,-3.641244643E-1,-6.285147547E0,2.550088056E-1,6.300848816E0
1.147262812E1,-1.196290621E-1,-6.376007431E0,-2.245775199E-1,6.381082740E0
1.148265412E1,1.576228807E-1,-6.786008345E0,-2.574996464E-1,6.792721126E0
1.149268112E1,6.000645129E-1,-7.340161836E0,-6.056772552E-2,7.364897939E0
1.150270712E1,1.068030484E0,-7.989948294E0,1.453173423E-1,8.062324725E0
1.151273413E1,1.415196342E0,-8.594953265E0,3.608199835E-1,8.718153094E0
1.152276113E1,1.721347783E0,-9.073461328E0,4.826455522E-1,9.247901674E0
1.153278712E1,1.900508955E0,-9.374424534E0,4.930115326E-1,9.577830130E0
1.154281412E1,1.933977833E0,-9.553632923E0,4.747845920E-1,9.758974982E0
1.155284012E1,1.937438069E0,-9.552619016E0,2.135192657E-1,9.749450590E0
1.156286712E1,2.059484809E0,-9.325866916E0,-1.356342801E-1,9.551527002E0
1.157289413E1,2.318657088E0,-8.903815475E0,-7.879625221E-1,9.234445605E0
1.158292012E1,2.510818959E0,-8.103413513E0,-2.162800870E0,8.754840376E0
1.159294712E1,2.632235515E0,-6.655124270E0,-4.277511899E0,8.337652602E0
1.160297312E1,2.855371989E0,-4.652227791E0,-5.296798532E0,7.606079628E0
1.161300012E1,3.054033772E0,-2.380728351E0,-2.634824370E0,4.683725998E0
1.162302613E1,2.393726127E0,2.491369951E-1,2.748832211E0,3.653501408E0
1.163305312E1,6.833085448E-1,3.215678002E0,6.222078309E0,7.037169464E0
1.164308012E1,-1.318518186E0,5.708380533E0,3.464623793E0,6.806446691E0
1.165310612E1,-3.033037298E0,6.901987867E0,3.189773083E-2,7.539082785E0
1.166313312E1,-3.973025161E0,7.547012937E0,-5.912692773E-1,8.549381999E0
1.167315912E1,-4.400660108E0,7.900975306E0,-1.914638021E0,9.244298726E0
1.168318613E1,-5.044285355E0,7.113078784E0,9.099694276E-1,8.767482472E0
1.169321312E1,-5.879693427E0,6.253332261E0,3.431886402E0,9.244068555E0
1.170323912E1,-6.124268425E0,5.329892603E0,4.759494670E-1,8.132708454E0
1.171326612E1,-5.337702144E0,4.060391334E0,-1.487690560E0,6.869575327E0
1.172329212E1,-4.873540518E0,3.173687977E0,-8.861420238E-1,5.882936362E0
1.173331913E1,-5.057743306E0,3.207583702E0,-7.165574209E-1,6.031816898E0
1.174334613E1,-5.417900215E0,4.062233791E0,-1.780727427E0,7.001883767E0
1.175337212E1,-5.946546983E0,5.731838978E0,-2.484754411E0,8.624929192E0
1.176339912E1,-6.631643606E0,7.889055757E0,-2.721104715E0,1.065928274E1
1.177342512E1,-6.885530879E0,9.756416700E0,-2.176477507E0,1.213817353E1
1.178345212E1,-6.223585721E0,9.970335331E0,-1.727028791E0,1.187953005E1
1.179347913E1,-4.893231894E0,8.102292017E0,-1.669672283E0,9.611381786E0
1.180350512E1,-3.428642952E0,5.739061459E0,-2.161208088E0,7.025897759E0
1.181353212E1,-3.192811296E0,4.474375956E0,-2.528305643E0,6.050323429E0
1.182355812E1,-3.428707856E0,4.592465739E0,-2.741920803E0,6.353338399E0
1.183358512E1,-3.890846053E0,6.067386711E0,-2.053101257E0,7.494470580E0
1.184361212E1,-4.503738334E0,7.973392487E0,-1.385789086E0,9.261698447E0
1.185363813E1,-5.379393961E0,9.492509054E0,-1.066288891E0,1.096278156E1
1.186366512E1,-6.026645066E0,1.038400011E1,-9.371695054E-1,1.204268225E1
1.187369112E1,-6.422897422E0,1.051902986E1,-1.253720073E0,1.238851947E1
1.188371812E1,-6.216746233E0,1.003008569E1,-8.917986202E-1,1.183409724E1
1.189374512E1,-5.238028752E0,9.365218678E0,-7.095001240E-1,1.075396004E1
1.190377113E1,-4.253823075E0,8.813450850E0,-9.456467986E-1,9.831895774E0
1.191379812E1,-3.306686113E0,8.332813232E0,-6.247270453E-1,8.986669755E0
1.192382412E1,-2.206479863E0,8.012884582E0,-2.711410908E-1,8.315551106E0
1.193385112E1,-1.278556560E0,7.851247661E0,-9.028466418E-2,7.955183720E0
1.194387812E1,-6.260140175E-1,7.615210767E0,-6.526289351E-2,7.641177123E0
1.195390413E1,-1.374572226E-1,6.904886332E0,4.059144415E-2,6.906373680E0
1.196393113E1,1.235756403E-1,5.511345738E0,8.324454345E-2,5.513359451E0
1.197395712E1,5.563421041E-2,3.667626257E0,7.490875281E-2,3.668813002E0
1.198398412E1,-1.258582471E-1,1.758000469E0,3.645227328E-3,1.762503684E0
1.199401112E1,-1.677595407E-1,-5.013870478E-2,-2.440382961E-1,3.003528644E-1
1.200403712E1,-2.307080331E-1,-1.830318832E0,-3.638475987E-1,1.880339943E0
1.201406413E1,-4.452154782E-1,-3.542268970E0,-8.481254742E-2,3.571145397E0
1.202409012E1,-6.372234222E-1,-5.211506367E0,3.396448767E-1,5.261293657E0
1.203411712E1,-6.595390284E-1,-6.810540923E0,4.907930624E-1,6.859980847E0
1.204414412E1,-3.582653350E-1,-8.249443631E0,4.493327951E-1,8.269436150E0
1.205417012E1,1.128626642E-1,-9.486351936E0,3.659971082E-1,9.494080520E0
1.206419712E1,7.970640787E-1,-1.049086382E1,2.039111209E-1,1.052307534E1
1.207422313E1,1.643281022E0,-1.126507260E1,2.090940928E-1,1.138621770E1
1.208425012E1,2.460762993E0,-1.192096413E1,3.346771188E-1,1.217689407E1
1.209427612E1,3.175348586E0,-1.233754784E1,5.543662568E-1,1.275167626E1
1.210430312E1,3.750914581E0,-1.255822644E1,5.100046742E-1,1.311634539E1
1.211433012E1,3.958248955E0,-1.246378689E1,4.226379168E-1,1.308404912E1
1.212435613E1,3.552958557E0,-1.173309309E1,1.303905702E-1,1.225993433E1
1.213438312E1,2.473328659E0,-1.043125731E1,-2.745279809E-1,1.072398477E1
1.214440912E1,1.487555928E0,-9.204938310E0,-5.653556601E-1,9.341484837E0
1.215443612E1,7.332283444E-1,-8.197822073E0,-3.394261909E-1,8.237543364E0
1.216446312E1,2.004315890E-2,-7.479996244E0,2.969520346E-1,7.485915178E0
1.217448912E1,-4.182057273E-1,-7.109283357E0,8.644207871E-1,7.173843403E0
1.218451592E1,-5.692164304E-1,-7.094538433E0,1.325267919E0,7.239669742E0
1.219454192E1,-5.693080124E-1,-7.345517886E0,1.631090162E0,7.545939288E0
1.220456892E1,-4.030820502E-1,-7.760350354E0,1.699040655E0,7.954385703E0
1.221459592E1,8.386354432E-2,-8.126755013E0,1.650297096E0,8.293048936E0
1.222462192E1,7.338437638E-1,-8.443299295E0,1.452998006E0,8.598780894E0
1.223464892E1,1.349018140E0,-8.755565169E0,1.043535036E0,8.920130983E0
1.224467492E1,1.814632653E0,-9.041239076E0,5.177990127E-1,9.236071217E0
1.225470192E1,2.179355361E0,-9.132476106E0,8.114413222E-2,9.389264826E0
1.226472892E1,2.458473516E0,-8.757814009E0,-7.782295028E-2,9.096672724E0
1.227475492E1,2.568262591E0,-8.063772315E0,-1.571369405E-1,8.464342189E0
1.228478192E1,2.801957674E0,-7.323237655E0,-4.594835615E-1,7.854419247E0
1.229480792E1,3.299518889E0,-6.746019237E0,-3.677360336E-1,7.518698706E0
1.230483492E1,3.531077399E0,-6.312715999E0,-1.187139144E0,7.329951584E0
1.231486192E1,3.265444239E0,-5.766405378E0,-3.422983432E0,7.458644155E0
1.232488792E1,2.692495750E0,-4.957492794E0,-5.882035822E0,8.150129666E0
1.233491492E1,3.118949853E0,-3.315346717E0,-3.773076113E0,5.912315569E0
1.234494092E1,3.755590892E0,-8.015743285E-1,7.544182885E-1,3.913582925E0
1.235496792E1,2.281360769E0,1.828583964E0,1.497215821E0,3.284810722E0
1.236499392E1,-7.457334191E-2,4.323216661E0,3.979388101E0,5.876333307E0
1.237502092E1,-1.978939559E0,7.430028863E0,5.905173254E0,9.694978177E0
1.238504792E1,-5.325299031E0,1.002580436E1,-4.329149830E-1,1.136058881E1
1.239507392E1,-8.862018993E0,1.020010284E1,-3.945238023E0,1.407630568E1
1.240510092E1,-1.005703551E1,6.933311986E0,6.161304688E-1,1.223087875E1
1.241512692E1,-9.315478168E0,2.771286689E0,3.097210490E0,1.020053313E1
1.242515392E1,-4.755577912E0,6.853930771E-1,-1.594952176E0,5.062524804E0
1.243518092E1,-2.067415826E0,8.547442299E-1,-1.283801805E0,2.579329946E0
1.244520692E1,-3.810300658E0,3.207305374E0,-4.447274550E-1,5.000298129E0
1.245523392E1,-5.030723323E0,6.270815436E0,-1.456107702E0,8.170162362E0
1.246525992E1,-5.306183313E0,8.685091018E0,-2.793483158E-1,1.018157271E1
1.247528692E1,-5.111009687E0,1.008238669E1,-8.936908523E-1,1.133911923E1
1.248531392E1,-5.351753004E0,1.023409972E1,-2.597710923E0,1.183748957E1
1.249533992E1,-6.213405134E0,9.488910677E0,-3.145086322E0,1.177019104E1
1.250536692E1,-6.590968035E0,8.754913205E0,-3.358886254E0,1.146173991E1
1.251539292E1,-6.480723462E0,7.840945451E0,-2.565271740E0,1.049098762E1
1.252541992E1,-6.532996400E0,7.330112227E0,-1.963452916E0,1.001327791E1
1.253544692E1,-6.397104769E0,7.449728132E0,-1.315471494E0,9.907162254E0
1.254547292E1,-6.078150265E0,8.102487899E0,-8.003339879E-1,1.016045055E1
1.255549992E1,-5.675753655E0,8.882867240E0,-8.671326526E-1,1.057692909E1
1.256552592E1,-5.120941767E0,9.389910884E0,-1.020318008E0,1.074409232E1
1.257555292E1,-4.293166065E0,9.659305558E0,-7.686971891E-1,1.059831846E1
1.258557992E1,-3.480979625E0,9.724014940E0,-4.609206609E-1,1.033857503E1
1.259560592E1,-2.981675940E0,9.643035096E0,-5.522544618E-1,1.010858557E1
1.260563292E1,-2.696846079E0,9.340009577E0,-6.273397274E-1,9.741781808E0
1.261565892E1,-2.395941345E0,8.800496929E0,-2.727036130E-1,9.124891691E0
1.262568592E1,-2.124441966E0,8.190662742E0,-1.982393217E-1,8.464012562E0
1.263571192E1,-1.970706387E0,7.514063292E0,-1.110011300E-1,7.768986554E0
1.264573892E1,-1.788922007E0,6.751308044E0,1.805292749E-1,6.986629593E0
1.265576592E1,-1.615649712E0,5.923279157E0,1.146557128E-1,6.140741478E0
1.266579192E1,-1.650436844E0,4.892057773E0,3.972528148E-1,5.178221783E0
1.267581892E1,-1.626626982E0,3.601511790E0,8.783547751E-1,4.048247722E0
1.268584492E1,-1.390630727E0,2.111435419E0,1.180275682E0,2.790172761E0
1.269587192E1,-1.005288691E0,5.911043859E-1,8.537203825E-1,1.445284829E0
1.270589892E1,-6.813019265E-1,-9.189712161E-1,4.906165131E-1,1.244742935E0
1.271592492E1,-3.712142864E-1,-2.363888955E0,4.597455168E-1,2.436624095E0
1.272595192E1,-6.064907491E-2,-3.879987774E0,3.035442769E-1,3.892315836E0
1.273597792E1,1.871173328E-1,-5.291855296E0,2.683649790E-1,5.301958613E0
1.274600492E1,4.700880718E-1,-6.619388427E0,5.833708584E-1,6.661652009E0
1.275603192E1,7.856539683E-1,-7.954587842E0,9.544573832E-1,8.050075079E0
1.276605792E1,1.009276638E0,-9.324989249E0,1.178368320E0,9.453180191E0
1.277608492E1,1.241250593E0,-1.080296481E1,9.210241735E-1,1.091297563E1
1.278611092E1,1.659007108E0,-1.220953007E1,2.006787801E-1,1.232335998E1
1.279613792E1,2.073163493E0,-1.339070857E1,-1.226395376E-1,1.355079788E1
1.280616492E1,2.319343404E0,-1.401255059E1,-1.932317662E-1,1.420451571E1
1.281619092E1,2.197877440E0,-1.372874312E1,7.804629564E-2,1.390378165E1
1.282621792E1,1.447108983E0,-1.243222245E1,7.518525302E-1,1.253872249E1
1.283624392E1,6.118429980E-1,-1.056926914E1,6.797201085E-1,1.060876154E1
1.284627092E1,4.613654879E-1,-8.866234835E0,5.369088829E-2,8.878392928E0
1.285629692E1,1.682571387E-1,-7.591656429E0,-2.844161707E-1,7.598845330E0
1.286632392E1,-3.040844500E-1,-6.676922690E0,-7.464251447E-1,6.725393256E0
1.287635092E1,-5.832435353E-1,-5.897336231E0,-1.349236826E0,6.077761731E0
1.288637692E1,-5.755817825E-1,-5.538722987E0,-1.664906949E0,5.812113373E0
1.289640392E1,-5.320868303E-1,-5.957653769E0,-1.539615151E0,6.176339501E0
1.290642992E1,-4.787665093E-1,-6.948895401E0,-9.377027714E-1,7.028203977E0
1.291645692E1,-7.295541734E-2,-8.090333877E0,-7.072675109E-2,8.090971944E0
1.292648392E1,7.577513476E-1,-8.973316065E0,8.856695688E-1,9.048701503E0
1.293650992E1,1.600538021E0,-9.731822142E0,1.550168205E0,9.983641902E0
1.294653692E1,2.297131148E0,-1.033211660E1,1.750390903E0,1.072815516E1
1.295656292E1,2.846443291E0,-1.064664417E1,1.373506279E0,1.110584491E1
1.296658992E1,3.108021407E0,-1.057702138E1,5.452200786E-1,1.103768287E1
1.297661692E1,3.115545896E0,-1.002372509E1,-2.591556144E-1,1.049994536E1
1.298664292E1,3.163153341E0,-8.891473172E0,-6.728495570E-1,9.461319187E0
1.299666992E1,3.225481152E0,-7.423621484E0,-9.903978789E-1,8.154432694E0
1.300669592E1,3.171853706E0,-5.839209645E0,-1.322402784E0,6.775380014E0
1.301672292E1,2.667320563E0,-3.978701638E0,-2.978259412E0,5.640451652E0
1.302674892E1,1.435258139E0,-1.892031516E0,-2.991087034E0,3.819208141E0
1.303677592E1,-3.705263615E-2,5.409633422E-1,1.762665524E0,1.844181115E0
1.304680292E1,-1.886477538E0,3.555812876E0,4.907458169E0,6.347105513E0
1.305682892E1,-4.369888551E0,6.378373799E0,1.985898038E0,7.982691857E0
1.306685592E1,-5.522867092E0,8.549601676E0,-1.975457250E0,1.036822941E1
1.307688192E1,-4.429580437E0,9.655322435E0,-3.902269174E0,1.131698453E1
1.308690892E1,-3.294602550E0,9.107086326E0,-1.451452003E0,9.792861697E0
1.309693592E1,-3.055687072E0,7.811242765E0,3.183170407E0,8.971360591E0
1.310696192E1,-3.426411947E0,6.447278557E0,2.607679256E0,7.752914983E0
1.311698892E1,-3.370450585E0,4.254810669E0,-6.013440299E-1,5.461223821E0
1.312701492E1,-2.342458325E0,1.529405912E0,-9.746117122E-1,2.962441803E0
1.313704192E1,-1.451193848E0,-1.206900394E-1,-8.520094872E-2,1.458694235E0
1.314706892E1,-1.514518609E0,-4.843658030E-1,-1.458182294E0,2.157468992E0
1.315709492E1,-2.616236949E0,2.628592408E-1,-2.694317451E0,3.764722736E0
1.316712192E1,-3.228973401E0,2.923593208E0,-1.915504725E0,4.758447732E0
1.317714787E1,-3.308712173E0,6.862195226E0,-2.259562933E0,7.946252212E0
1.318717487E1,-4.992466745E0,1.084310594E1,-2.751006206E0,1.225013085E1
1.319720087E1,-7.553484635E0,1.434518466E1,-1.366542391E0,1.626981534E1
1.320722788E1,-9.512226450E0,1.576718541E1,-9.558808878E-2,1.841455198E1
1.321725487E1,-9.883757948E0,1.310715603E1,-8.481376802E-1,1.643793016E1
1.322728087E1,-7.754221303E0,8.973172224E0,-2.282991703E0,1.207716104E1
1.323730787E1,-6.464952936E0,7.157573172E0,-2.299735644E0,9.915404894E0
1.324733387E1,-5.564688717E0,7.083376683E0,-1.821791253E0,9.190152835E0
1.325736088E1,-4.329137259E0,7.731382079E0,-1.285020365E0,8.953601264E0
1.326738788E1,-3.468568617E0,8.453077594E0,-6.840505564E-1,9.162609575E0
1.327741387E1,-2.871189000E0,8.941538787E0,-2.006917901E-1,9.393355063E0
1.328744087E1,-2.197809027E0,9.022977052E0,-1.463650902E-1,9.287943914E0
1.329746687E1,-1.654502121E0,8.772047301E0,-7.080090840E-1,8.954745556E0
1.330749387E1,-1.368905982E0,8.206290010E0,-6.379768360E-1,8.344106529E0
1.331752088E1,-1.132550708E0,7.478325110E0,5.612398781E-2,7.563806413E0
1.332754687E1,-9.522430426E-1,6.585390376E0,4.785067467E-1,6.671064527E0
1.333757387E1,-8.519746962E-1,5.547801374E0,7.016226820E-1,5.656521489E0
1.334759987E1,-7.186081856E-1,4.632184705E0,7.958458114E-1,4.754671747E0
1.335762687E1,-5.710741639E-1,3.814552753E0,8.481269360E-1,3.949209757E0
1.336765288E1,-5.890289167E-1,2.856571253E0,8.655818979E-1,3.042398135E0
1.337767988E1,-7.410065299E-1,1.795156016E0,1.091871629E0,2.227972050E0
1.338770687E1,-7.267195894E-1,8.425644797E-1,9.375063050E-1,1.454975717E0
1.339773287E1,-6.070253308E-1,-2.734497178E-1,5.589891751E-1,8.693235291E-1
1.340775987E1,-4.571749346E-1,-1.645311760E0,2.122409912E-1,1.720786432E0
1.341778587E1,-2.578530009E-1,-3.036297120E0,-1.776021222E-1,3.052397564E0
1.342781288E1,-4.025559470E-2,-4.380746831E0,-1.746071784E-1,4.384409992E0
1.343783987E1,6.170566678E-2,-5.785997643E0,1.957203412E-1,5.789635806E0
1.344786587E1,1.902792147E-1,-7.206750010E0,4.624422526E-1,7.224078122E0
1.345789287E1,5.151929086E-1,-8.565112585E0,5.235503340E-1,8.596550603E0
1.346791887E1,1.111511111E0,-9.768808705E0,2.800243636E-1,9.835827067E0
1.347794587E1,1.827911826E0,-1.078982377E1,-6.260962805E-2,1.094374153E1
1.348797188E1,2.475002132E0,-1.160814277E1,-1.172834424E-1,1.186964067E1
1.349799887E1,2.803710669E0,-1.214356529E1,-3.086183810E-1,1.246684470E1
1.350802587E1,2.627962663E0,-1.231596460E1,-4.304930663E-1,1.260057523E1
1.351805187E1,1.823704462E0,-1.177049656E1,-5.779037118E-2,1.191108001E1
1.352807887E1,9.750772968E-1,-1.069707056E1,-8.829295635E-4,1.074141960E1
1.353810488E1,4.810312090E-1,-9.598381664E0,-1.792095584E-1,9.612098505E0
1.354813187E1,3.554843992E-2,-8.645315334E0,-1.669052625E-1,8.646999380E0
1.355815887E1,-3.016300812E-1,-7.844524532E0,-2.251154637E-1,7.853548422E0
1.356818487E1,-4.304372254E-1,-7.222346873E0,-3.889930379E-1,7.245611509E0
1.357821187E1,-4.386601648E-1,-6.848791069E0,-3.724723148E-1,6.872924957E0
1.358823788E1,-2.512367302E-1,-6.830959400E0,-1.944760537E-1,6.838343890E0
1.359826488E1,3.496342599E-3,-7.184107836E0,4.198417783E-2,7.184231365E0
1.360829087E1,4.339758141E-1,-7.743140829E0,3.929820085E-1,7.765243059E0
1.361831787E1,1.147162169E0,-8.342800276E0,6.955263019E-1,8.449973629E0
1.362834487E1,1.787685760E0,-8.965133471E0,8.998478973E-1,9.185813234E0
1.363837087E1,2.232950501E0,-9.491830192E0,1.056445688E0,9.808006211E0
1.364839788E1,2.594007881E0,-9.667997444E0,9.576581490E-1,1.005565317E1
1.365842387E1,2.892003041E0,-9.340097285E0,7.498375797E-1,9.806291617E0
1.366845087E1,3.149744506E0,-8.510745174E0,4.921016693E-1,9.088225235E0
1.367847787E1,3.308282111E0,-7.407773191E0,-4.783888157E-1,8.127034516E0
1.368850387E1,3.291969256E0,-6.097703939E0,-2.187358006E0,7.266607872E0
1.369853087E1,2.764242841E0,-4.498461222E0,-4.240693152E0,6.772050669E0
1.370855688E1,1.485764049E0,-2.713777569E0,-5.407648877E0,6.230148464E0
1.371858387E1,3.798012149E-1,-7.092619962E-1,-2.929146309E0,3.037630597E0
1.372861087E1,-5.208144218E-2,1.274194829E0,2.629270685E0,2.922216500E0
1.373863687E1,-6.759164947E-1,2.853793241E0,4.195569019E0,5.118964579E0
1.374866387E1,-1.489810030E0,4.159501639E0,2.122567348E0,4.901660939E0
1.375868988E1,-1.647822554E0,5.765429478E0,1.604148531E0,6.207156252E0
1.376871687E1,-1.843644345E0,7.422870117E0,1.157493761E0,7.735490744E0
1.377874287E1,-3.232931089E0,7.638988470E0,2.423481438E0,8.641715718E0
1.378876987E1,-4.953536568E0,5.767963076E0,1.661492175E0,7.782511087E0
1.379879687E1,-5.997249359E0,2.892863166E0,-7.948942501E-2,6.658977079E0
1.380882287E1,-7.069265013E0,7.135614538E-1,-9.594450581E-1,7.169673116E0
1.381884988E1,-8.050682738E0,-5.048193634E-2,-1.850111657E0,8.260687267E0
1.382887587E1,-7.111324620E0,7.454293638E-1,-2.913799707E0,7.721193659E0
1.383890287E1,-4.842699087E0,2.595786020E0,-2.413460480E0,6.001219125E0
1.384892987E1,-3.776412535E0,4.047328654E0,-1.132025628E0,5.650101140E0
1.385895587E1,-4.007404450E0,5.357208456E0,-1.472223651E0,6.850285786E0
1.386898288E1,-4.421825275E0,6.917827975E0,-2.024092051E0,8.456112066E0
1.387900887E1,-4.143773798E0,8.807609482E0,-2.520261043E0,1.005467860E1
1.388903587E1,-3.854574021E0,1.051326334E1,-2.848164711E0,1.155415463E1
1.389906187E1,-4.031624787E0,1.103681835E1,-1.957525009E0,1.191206371E1
1.390908887E1,-4.367123988E0,1.009089439E1,-1.442593471E0,1.108958960E1
1.391911587E1,-4.861149976E0,8.715180790E0,-1.750287992E0,1.013156766E1
1.392914188E1,-5.240727242E0,8.134251144E0,-1.772390467E0,9.837308151E0
1.393916887E1,-5.148282178E0,8.115489183E0,-1.568704902E0,9.737905788E0
1.394919487E1,-4.970393506E0,8.366555175E0,-9.369953314E-1,9.776605615E0
1.395922187E1,-4.675583324E0,8.680127901E0,-1.043470716E-1,9.859847267E0
1.396924887E1,-4.302815140E0,8.935263555E0,7.832930088E-2,9.917625140E0
1.397927488E1,-3.744536439E0,9.043602521E0,2.768071890E-2,9.788210557E0
1.398930188E1,-3.156264152E0,8.965031145E0,1.147247100E-1,9.505101188E0
1.399932787E1,-2.633499976E0,8.783359324E0,1.272460107E-1,9.170546041E0
1.400935487E1,-2.144616029E0,8.269560977E0,4.710833410E-1,8.556105199E0
1.401938087E1,-1.856295380E0,7.509754479E0,8.295748170E-1,7.780131056E0
1.402940787E1,-1.664711652E0,6.595821224E0,1.133372900E0,6.896423467E0
1.403943488E1,-1.543095121E0,5.605903986E0,1.528933457E0,6.012066165E0
1.404946087E1,-1.296386767E0,4.483812193E0,1.942105901E0,5.055389773E0
1.405948787E1,-1.068805825E0,3.454240308E0,2.080162171E0,4.171474158E0
1.406951387E1,-9.705930671E-1,2.572440426E0,2.033372751E0,3.419664515E0
1.407954087E1,-9.338965264E-1,1.593150503E0,1.611581511E0,2.451017384E0
1.408956788E1,-7.848588932E-1,4.149488282E-1,6.740728676E-1,1.114701863E0
1.409959387E1,-6.436939511E-1,-8.151743674E-1,-4.639652330E-2,1.039713321E0
1.410962087E1,-4.993177181E-1,-2.001629387E0,-2.871029663E-1,2.082850571E0
1.411964687E1,-1.647160649E-1,-2.938769656E0,-3.574590039E-1,2.965008502E0
1.412967387E1,1.266071293E-1,-3.744464518E0,-3.155718899E-1,3.759870943E0
1.413969987E1,1.276292226E-1,-4.553442006E0,-8.591898680E-3,4.555238429E0
1.414972688E1,4.927638665E-2,-5.466891696E0,4.789828563E-1,5.488055900E0
1.415975387E1,1.686044633E-1,-6.478966373E0,8.040658271E-1,6.530846391E0
1.416977987E1,4.328813615E-1,-7.484755878E0,7.041521144E-1,7.530258098E0
1.417980775E1,7.273405637E-1,-8.555016198E0,5.535383642E-1,8.603704502E0
1.418983375E1,1.068484959E0,-9.665193704E0,2.908100828E-1,9.728422275E0
1.419986075E1,1.439086311E0,-1.063165308E1,-2.579604435E-1,1.073170817E1
1.420988775E1,1.735482549E0,-1.132333426E1,-8.548804700E-1,1.148741133E1
1.421991375E1,1.933079847E0,-1.160563783E1,-1.131740284E0,1.181983346E1
1.422994075E1,1.723696609E0,-1.129824151E1,-9.856698203E-1,1.147139644E1
1.423996675E1,9.752620688E-1,-1.064302475E1,-4.137910795E-1,1.069562223E1
1.424999375E1,2.515065792E-1,-9.974768690E0,1.037424695E-1,9.978478265E0
1.426001975E1,-5.240713209E-2,-9.439224547E0,4.545005643E-1,9.450305673E0
1.427004675E1,-2.571271422E-1,-8.923786640E0,5.512731528E-1,8.944494645E0
1.428007375E1,-4.846688350E-1,-8.431806593E0,3.112520035E-1,8.451458106E0
1.429009975E1,-5.278859713E-1,-8.041238315E0,2.065940062E-2,8.058573326E0
1.430012675E1,-3.574294024E-1,-7.862560853E0,-1.427480575E-1,7.871975353E0
1.431015275E1,-4.014259726E-3,-7.941015285E0,-1.211963352E-1,7.941941099E0
1.432017975E1,5.630082223E-1,-8.085940279E0,1.374820733E-1,8.106683031E0
1.433020675E1,1.197514151E0,-8.289978869E0,5.925147343E-1,8.396955609E0
1.434023275E1,1.785265743E0,-8.468158733E0,1.099940786E0,8.723918605E0
1.435025975E1,2.283367095E0,-8.568144366E0,1.458265178E0,8.986289585E0
1.436028575E1,2.671101665E0,-8.550317375E0,1.628025051E0,9.104569012E0
1.437031275E1,2.934127552E0,-8.353731646E0,1.627543241E0,9.002379347E0
1.438033875E1,2.929555322E0,-8.053064309E0,1.020494594E0,8.629921689E0
1.439036575E1,2.837820109E0,-7.270480567E0,-1.976195168E-1,7.807186697E0
1.440039275E1,2.634579372E0,-6.231780594E0,-2.451548073E0,7.196261932E0
1.441041875E1,1.966730573E0,-5.082631395E0,-4.614718487E0,7.141204223E0
1.442044575E1,7.573234776E-1,-3.530860468E0,-4.435358655E0,5.719521037E0
1.443047175E1,-5.075932825E-1,-1.829269257E0,-2.464558128E0,3.110936149E0
1.444049875E1,-8.256926313E-1,2.657910347E-2,2.404925445E-1,8.604135251E-1
1.445052475E1,-2.936869311E-1,2.155419345E0,1.205221001E0,2.486894092E0
1.446055175E1,3.322601357E-1,4.419484634E0,8.669865453E-1,4.515961349E0
1.447057875E1,-5.727464676E-1,6.863066461E0,1.054518300E0,6.967189434E0
1.448060475E1,-3.832229471E0,9.084003857E0,1.688645329E0,1.000283119E1
1.449063175E1,-7.260810442E0,1.022006874E1,4.231488173E-1,1.254385221E1
1.450065775E1,-8.151042008E0,8.461201131E0,-1.114076942E0,1.180138034E1
1.451068475E1,-6.221798812E0,4.340585230E0,1.295684663E0,7.696119759E0
1.452071175E1,-3.121848317E0,1.260921065E0,1.035088221E0,3.522394991E0
1.453073775E1,-1.216257693E0,-5.055274612E-1,-1.342820237E0,1.880959059E0
1.454076475E1,-1.432395927E0,-9.910223615E-1,-2.647967741E0,3.169482067E0
1.455079075E1,-2.137618082E0,9.879385400E-1,-3.177536030E0,3.955018185E0
1.456081775E1,-2.429426887E0,4.222788978E0,-2.121827091E0,5.313775678E0
1.457084375E1,-3.568365093E0,7.352895318E0,-1.012633597E0,8.235516122E0
1.458087075E1,-5.353111312E0,1.026589454E1,-8.787242460E-1,1.161105283E1
1.459089775E1,-7.364987944E0,1.276977987E1,-1.375165719E0,1.480545191E1
1.460092375E1,-9.216266706E0,1.354113871E1,-1.218334039E0,1.642517420E1
1.461095075E1,-9.743439390E0,1.220559724E1,-1.267476379E0,1.566900480E1
1.462097675E1,-8.589884314E0,1.031610692E1,-1.622443299E0,1.352185256E1
1.463100375E1,-7.408494152E0,9.087596971E0,-1.921678069E0,1.188120579E1
1.464103075E1,-6.480779595E0,8.595647330E0,-2.076607064E0,1.096348275E1
1.465105675E1,-5.267253136E0,8.598190284E0,-1.863458366E0,1.025403866E1
1.466108375E1,-4.261030937E0,8.718555218E0,-1.414409891E0,9.806637807E0
1.467110975E1,-3.410992547E0,8.807128841E0,-7.284227371E-1,9.472644206E0
1.468113675E1,-2.692962358E0,8.927393788E0,-6.417414196E-1,9.346776886E0
1.469116275E1,-2.019259619E0,8.984054477E0,-8.133955713E-1,9.244038977E0
1.470118975E1,-1.383309428E0,8.825223634E0,-5.299505500E-1,8.948685085E0
1.471121675E1,-7.779033378E-1,8.472620743E0,7.236762598E-2,8.508564681E0
1.472124275E1,-3.363587415E-1,7.867072565E0,6.415401292E-1,7.900350732E0
1.473126975E1,-2.214249936E-1,7.031560997E0,8.511534548E-1,7.086348939E0
1.474129575E1,-4.081932476E-1,5.957820999E0,1.161528412E0,6.083699618E0
1.475132275E1,-6.974047199E-1,4.710933836E0,1.124116684E0,4.893149218E0
1.476134875E1,-9.395028368E-1,3.327237614E0,1.040343772E0,3.610469621E0
1.477137575E1,-9.970853394E-1,1.815509589E0,9.596216440E-1,2.282789509E0
1.478140275E1,-9.159061056E-1,2.341067272E-1,7.543294108E-1,1.209422513E0
1.479142875E1,-6.570637558E-1,-1.316736247E0,5.703492554E-1,1.578234899E0
1.480145575E1,-3.361666605E-1,-2.811825435E0,2.999014250E-1,2.847685229E0
1.481148175E1,4.688019767E-2,-4.408923978E0,-5.410772167E-2,4.409505193E0
1.482150875E1,3.752994436E-1,-5.847163028E0,9.496462941E-2,5.859964456E0
1.483153575E1,5.535146829E-1,-7.036786069E0,6.169467402E-1,7.085432941E0
1.484156175E1,6.747713175E-1,-8.073461151E0,1.078350527E0,8.173061308E0
1.485158875E1,7.130613707E-1,-8.973949319E0,1.385732807E0,9.108264286E0
1.486161475E1,7.210359496E-1,-9.822293186E0,1.458101602E0,9.956073350E0
1.487164175E1,8.273045625E-1,-1.074655789E1,1.216695650E0,1.084681002E1
1.488166775E1,1.023819394E0,-1.152037490E1,8.136353803E-1,1.159436270E1
1.489169475E1,1.183312141E0,-1.211591732E1,3.759537470E-1,1.217936868E1
1.490172175E1,1.244610257E0,-1.240811906E1,2.806874744E-1,1.247354235E1
1.491174775E1,1.246296594E0,-1.217760077E1,5.866721964E-1,1.225526009E1
1.492177475E1,1.153835231E0,-1.133291433E1,8.555131388E-1,1.142358025E1
1.493180075E1,6.225523196E-1,-1.019677928E1,6.624181974E-1,1.023722018E1
1.494182775E1,4.976530889E-1,-9.010932373E0,1.955531108E-1,9.026782475E0
1.495185375E1,7.878960831E-1,-8.100028560E0,-3.875768423E-1,8.147481741E0
1.496188075E1,8.147195271E-1,-7.493446010E0,-8.861244822E-1,7.589513661E0
1.497190775E1,6.575811613E-1,-7.129324104E0,-1.159610453E0,7.252887119E0
1.498193375E1,5.327132864E-1,-7.026384457E0,-1.125771446E0,7.135910827E0
1.499196075E1,4.887325037E-1,-7.221706603E0,-9.049092472E-1,7.294571026E0
1.500198675E1,5.198399833E-1,-7.619555833E0,-5.106373429E-1,7.654320035E0
1.501201375E1,6.502447329E-1,-8.046111969E0,-5.844997365E-2,8.072555508E0
1.502203975E1,9.642400673E-1,-8.433959538E0,3.205174649E-1,8.494949313E0
1.503206675E1,1.599461257E0,-8.562956132E0,6.802802718E-1,8.737578341E0
1.504209375E1,2.260154087E0,-8.420688697E0,1.006205242E0,8.776602054E0
1.505211975E1,2.987490996E0,-8.215903417E0,1.164068370E0,8.819366564E0
1.506214675E1,3.786104879E0,-7.788042768E0,2.199126478E-1,8.662364682E0
1.507217275E1,4.169867875E0,-6.886780429E0,-1.987398434E0,8.292484266E0
1.508219975E1,3.677395785E0,-5.503516316E0,-3.976539338E0,7.721709442E0
1.509222675E1,2.500769935E0,-3.833907037E0,-2.546705661E0,5.238167920E0
1.510225275E1,1.021426129E0,-2.305648348E0,1.616807753E0,2.995562210E0
1.511227975E1,-3.723226261E-1,-7.389909947E-1,3.069439723E0,3.179023756E0
1.512230575E1,-1.263209958E0,1.133402647E0,1.910047957E0,2.555109421E0
1.513233275E1,-1.717633339E0,3.724963469E0,4.693466449E-1,4.128668478E0
1.514235875E1,-3.192742591E0,6.962067423E0,-7.228911980E-1,7.693280168E0
1.515238575E1,-5.555448947E0,9.494728657E0,1.564422548E-1,1.100169803E1
1.516241275E1,-7.013614722E0,9.858138957E0,1.668407092E0,1.221299625E1
1.517243875E1,-7.079392390E0,7.818277550E0,2.663524843E0,1.087830984E1
1.518246550E1,-5.874374800E0,4.706286469E0,1.667231802E0,7.709544312E0
1.519249150E1,-4.228226888E0,2.240800973E0,-9.885412417E-2,4.786320482E0
1.520251850E1,-3.156891850E0,1.107494804E0,-2.419386048E0,4.128672880E0
1.521254450E1,-2.648669407E0,9.903242040E-1,-3.078381286E0,4.180026674E0
1.522257150E1,-2.165773010E0,1.989713931E0,-2.258934942E0,3.708412239E0
1.523259850E1,-2.120821370E0,3.857140948E0,-1.479842573E0,4.643851162E0
1.524262450E1,-2.502322370E0,5.820103868E0,-1.118553570E0,6.433225347E0
1.525265150E1,-3.072557459E0,7.480571610E0,-1.172673059E0,8.171580206E0
1.526267750E1,-3.614204925E0,8.464282029E0,-1.169239647E0,9.277589604E0
1.527270450E1,-4.392308530E0,8.326485375E0,-1.463395525E0,9.527027836E0
1.528273150E1,-5.006044564E0,7.371173129E0,-1.368140874E0,9.014792562E0
1.529275750E1,-5.344740438E0,6.575502734E0,-1.124559903E0,8.547989327E0
1.530278450E1,-5.765156413E0,6.164880846E0,-1.515682497E0,8.575551162E0
1.531281050E1,-5.931838312E0,6.186478706E0,-1.427945026E0,8.688972985E0
1.532283750E1,-5.739276636E0,6.845423073E0,-1.239814371E0,9.018661377E0
1.533286350E1,-5.162415483E0,7.825667261E0,-1.345645466E0,9.471133165E0
1.534289050E1,-4.470045508E0,8.757171400E0,-1.343352188E0,9.923404298E0
1.535291750E1,-3.942775760E0,9.336721103E0,-1.253579886E0,1.021231140E1
1.536294350E1,-3.597318751E0,9.494539792E0,-9.190677682E-1,1.019468850E1
1.537297050E1,-3.401247577E0,9.181955245E0,-7.555058706E-1,9.820772694E0
1.538299650E1,-3.116441105E0,8.585352137E0,-4.024146637E-1,9.142341825E0
1.539302350E1,-2.695067356E0,7.869897940E0,-1.338345071E-1,8.319651033E0
1.540304950E1,-2.271534815E0,7.144479502E0,1.365734891E-1,7.498140442E0
1.541307650E1,-1.803558173E0,6.614905951E0,3.516281605E-1,6.865380192E0
1.542310350E1,-1.556311875E0,6.288412632E0,4.300054085E-1,6.492391295E0
1.543312950E1,-1.486367774E0,6.101045038E0,6.298737645E-1,6.311004728E0
1.544315650E1,-1.373146091E0,5.927289178E0,8.388954250E-1,6.141826497E0
1.545318250E1,-1.190426741E0,5.503803999E0,8.626315391E-1,5.696762893E0
1.546320950E1,-9.648569486E-1,4.509653378E0,6.658785065E-1,4.659540396E0
1.547323550E1,-9.271830457E-1,3.009026291E0,4.048939562E-1,3.174562448E0
1.548326250E1,-7.943632498E-1,1.350973449E0,1.814036530E-2,1.567313403E0
1.549328950E1,-4.360338879E-1,-3.350296694E-1,-4.932909930E-1,7.387194559E-1
1.550331550E1,-1.153553322E-1,-1.944865787E0,-6.964571786E-1,2.069024501E0
1.551334250E1,1.370783231E-1,-3.529078821E0,-6.030467391E-1,3.582855448E0
1.552336850E1,4.132091354E-1,-5.143163525E0,-4.241909007E-1,5.177143108E0
1.553339550E1,7.130360815E-1,-6.758581980E0,-1.309776672E-1,6.797352866E0
1.554342150E1,9.243380830E-1,-8.279525217E0,1.282271004E-1,8.331949406E0
1.555344850E1,1.250155756E0,-9.535389025E0,2.789718282E-1,9.621037291E0
1.556347550E1,1.718531471E0,-1.061319927E1,3.689721715E-1,1.075776416E1
1.557350150E1,2.268079403E0,-1.139381191E1,4.997615218E-1,1.162810800E1
1.558352850E1,2.749382727E0,-1.184260326E1,6.353467584E-1,1.217415388E1
1.559355450E1,3.117528394E0,-1.190860546E1,8.215992880E-1,1.233729681E1
1.560358150E1,3.204021285E0,-1.154296971E1,9.341114116E-1,1.201575908E1
1.561360850E1,2.766857423E0,-1.095816394E1,7.752051401E-1,1.132862746E1
1.562363450E1,1.944046007E0,-1.015756084E1,3.654088783E-1,1.034837575E1
1.563366150E1,1.222563184E0,-9.271166214E0,2.576047501E-2,9.351462308E0
1.564368750E1,7.240285546E-1,-8.515507731E0,-1.650668979E-1,8.547826410E0
1.565371450E1,2.033126584E-1,-7.989807376E0,-3.042470026E-1,7.998182555E0
1.566374050E1,-2.910909136E-1,-7.700380141E0,-4.088957906E-1,7.716721066E0
1.567376750E1,-6.523343816E-1,-7.582290359E0,-3.721156347E-1,7.619392185E0
1.568379450E1,-6.605649224E-1,-7.752820895E0,-9.896178603E-2,7.781540418E0
1.569382050E1,-5.042754261E-1,-7.994030235E0,2.861370246E-1,8.015028852E0
1.570384750E1,-2.292215247E-1,-8.227007865E0,6.344416094E-1,8.254617924E0
1.571387350E1,1.791173185E-1,-8.433474219E0,8.209186721E-1,8.475227306E0
1.572390050E1,6.624467026E-1,-8.548215301E0,1.074166260E0,8.640871115E0
1.573392650E1,1.167367954E0,-8.480933145E0,1.370821238E0,8.669955352E0
1.574395350E1,1.648648181E0,-8.213397886E0,1.677742757E0,8.543580421E0
1.575398050E1,2.116420755E0,-7.714465499E0,1.870068204E0,8.215191406E0
1.576400650E1,2.702982439E0,-7.051658462E0,1.566893581E0,7.712791753E0
1.577403350E1,3.459852758E0,-6.381351786E0,5.951798586E-1,7.283300816E0
1.578405950E1,4.221631229E0,-5.616933589E0,-8.724221170E-1,7.080482577E0
1.579408650E1,4.433638405E0,-4.715895199E0,-2.565428445E0,6.962631696E0
1.580411250E1,4.175314557E0,-3.302548331E0,-5.316589018E0,7.523708920E0
1.581413950E1,2.971720763E0,-1.552060949E0,-8.173959585E0,8.834796703E0
1.582416650E1,8.098703581E-1,-1.298345000E-1,-3.796381946E0,3.883975138E0
1.583419250E1,-1.328077506E0,1.128371118E0,5.573144960E0,5.839259884E0
1.584421950E1,-2.689058172E0,2.129605057E0,5.750596261E0,6.695939733E0
1.585424550E1,-1.872070291E0,2.501865703E0,7.671091584E-1,3.217520106E0
1.586427250E1,-2.686634794E-1,2.985762559E0,-7.233309817E-1,3.083855677E0
1.587429850E1,-1.286619578E0,3.519234449E0,-1.064924078E0,3.895441481E0
1.588432550E1,-3.455563533E0,3.995009522E0,6.303894889E-1,5.319625111E0
1.589435250E1,-4.237596467E0,4.496372597E0,7.382636742E-1,6.222509429E0
1.590437850E1,-4.042670762E0,4.695328787E0,-8.523440210E-1,6.254261718E0
1.591440550E1,-3.802324471E0,4.588720597E0,-9.030357993E-1,6.027395935E0
1.592443150E1,-4.352997115E0,4.361579073E0,-6.877458505E-1,6.200399201E0
1.593445850E1,-4.838448161E0,4.151125503E0,-1.364510922E0,6.519533235E0
1.594448450E1,-4.945186159E0,4.297374306E0,-1.226173986E0,6.665267791E0
1.595451150E1,-4.785401051E0,4.902424302E0,-7.916334041E-1,6.896412886E0
1.596453850E1,-4.920731934E0,5.672393260E0,-1.291765712E0,7.619600168E0
1.597456450E1,-5.537422566E0,6.081355124E0,-1.626241651E0,8.383948397E0
1.598459150E1,-5.838753562E0,6.114060355E0,-1.588205513E0,8.602044753E0
1.599461750E1,-5.710891328E0,6.143346720E0,-7.787298417E-1,8.423859498E0
1.600464450E1,-5.119218008E0,6.059663708E0,-8.906210641E-1,7.982425894E0
1.601467050E1,-4.854528589E0,5.895488511E0,-1.627960732E0,7.808552282E0
1.602469750E1,-5.219322340E0,6.202492476E0,-1.754108562E0,8.293921596E0
1.603472450E1,-5.427958596E0,6.854661673E0,-1.736350569E0,8.914260175E0
1.604475050E1,-5.586581862E0,7.475789173E0,-1.577778758E0,9.465025434E0
1.605477750E1,-5.437689532E0,8.008557057E0,-1.056785923E0,9.737671697E0
1.606480350E1,-5.067603466E0,8.335206497E0,-7.703368945E-1,9.785177115E0
1.607483050E1,-4.617276644E0,8.408043509E0,-4.130951878E-1,9.601306520E0
1.608485650E1,-4.055446928E0,8.334694281E0,-1.675846358E-1,9.270483437E0
1.609488350E1,-3.535472167E0,8.245757546E0,-6.877261162E-2,8.972001484E0
1.610491050E1,-3.222408732E0,8.210505853E0,-1.838902545E-1,8.822139198E0
1.611493650E1,-2.965904245E0,8.211596943E0,-2.210270905E-1,8.733599792E0
1.612496350E1,-2.691592648E0,8.101178123E0,-3.613859940E-1,8.544258762E0
1.613498950E1,-2.319668510E0,7.677892334E0,-6.472385332E-2,8.020915276E0
1.614501650E1,-1.779363564E0,7.033133898E0,3.048457575E-1,7.261132009E0
1.615504250E1,-1.246159769E0,6.299877852E0,3.103502532E-1,6.429439509E0
1.616506950E1,-7.904853764E-1,5.569270011E0,4.425267092E-1,5.642469802E0
1.617509650E1,-3.738545966E-1,4.803472456E0,6.194071754E-1,4.857651711E0
1.618512254E1,-1.975686461E-2,3.990760936E0,5.051526546E-1,4.022653649E0
1.619514954E1,2.127319381E-1,3.070700383E0,5.788720838E-1,3.132019893E0
1.620517554E1,2.938433442E-1,1.973040596E0,9.848816887E-1,2.224685381E0
1.621520254E1,3.285205489E-1,7.037942648E-1,9.510051870E-1,1.227869286E0
1.622522854E1,3.598724422E-1,-6.666094816E-1,5.622472803E-1,9.433972545E-1
1.623525554E1,3.498874444E-1,-2.002904080E0,2.929056700E-1,2.054224844E0
1.624528254E1,3.126574914E-1,-3.273747870E0,2.321451326E-1,3.296827443E0
1.625530854E1,2.889153108E-1,-4.439538245E0,3.191223192E-1,4.460359957E0
1.626533554E1,2.799442202E-1,-5.506065702E0,4.666429655E-1,5.532891102E0
1.627536154E1,3.150411089E-1,-6.622021428E0,5.043458120E-1,6.648667790E0
1.628538854E1,3.438104331E-1,-7.785861171E0,5.694322658E-1,7.814223755E0
1.629541454E1,3.811032437E-1,-8.886756223E0,8.762240497E-1,8.937977648E0
1.630544154E1,5.678226735E-1,-9.864044645E0,1.214646712E0,9.954755948E0
1.631546854E1,7.727102794E-1,-1.067112413E1,1.365730652E0,1.078587927E1
1.632549454E1,9.907242997E-1,-1.147555599E1,1.365220774E0,1.159886838E1
1.633552154E1,1.293615625E0,-1.219522778E1,1.304905576E0,1.233287479E1
1.634554754E1,1.571856990E0,-1.258406412E1,1.243436136E0,1.274266603E1
1.635557454E1,1.856029186E0,-1.236865386E1,9.959971726E-1,1.254673077E1
1.636560054E1,1.967107426E0,-1.163043470E1,5.576057239E-1,1.180878686E1
1.637562754E1,1.452274998E0,-1.038905444E1,2.288834460E-1,1.049256606E1
1.638565454E1,8.412525107E-1,-9.044863181E0,-6.385623615E-2,9.084125349E0
1.639568054E1,7.164252739E-1,-8.073091607E0,-2.694642190E-1,8.109296161E0
1.640570754E1,5.814281941E-1,-7.455627388E0,-3.084265924E-1,7.484621932E0
1.641573354E1,3.711001195E-1,-6.983105121E0,-5.270095833E-1,7.012789140E0
1.642576054E1,1.568025894E-1,-6.545198954E0,-7.907002616E-1,6.594651113E0
1.643578654E1,1.856433959E-1,-6.249720436E0,-8.276698673E-1,6.307020407E0
1.644581354E1,3.131544317E-1,-6.136493198E0,-5.984812331E-1,6.173556046E0
1.645584054E1,3.213528858E-1,-6.261232435E0,1.297142666E-2,6.269487023E0
1.646586654E1,4.547891244E-1,-6.533309226E0,7.595486355E-1,6.593017270E0
1.647589354E1,8.455981614E-1,-6.739877906E0,1.449680296E0,6.945686676E0
1.648591954E1,1.381923346E0,-6.911236993E0,2.285376052E0,7.409308511E0
1.649594654E1,1.788189790E0,-7.128849894E0,2.274876791E0,7.693710935E0
1.650597254E1,1.832672483E0,-7.294367028E0,9.749273157E-1,7.583993805E0
