"Time (s)","Linear Acceleration x (m/s^2)","Linear Acceleration y (m/s^2)","Linear Acceleration z (m/s^2)","Absolute acceleration (m/s^2)"
1.021233333E-2,2.029295488E0,1.176843367E0,1.112862548E0,2.596432849E0
2.023833333E-2,1.540699809E0,9.930074912E-1,1.224898708E0,2.204585364E0
3.026533333E-2,1.035277013E0,9.018371201E-1,1.421732360E0,1.976469475E0
4.029133333E-2,6.050856632E-1,8.985650182E-1,1.633048979E0,1.959693017E0
5.031733333E-2,3.424199653E-1,8.868363807E-1,1.837498044E0,2.068847326E0
6.034433333E-2,1.696183705E-1,9.265766895E-1,2.075688466E0,2.279429175E0
7.037033333E-2,5.597948849E-2,1.064723153E0,2.301212651E0,2.536207554E0
8.039633333E-2,-2.527166605E-2,1.121430473E0,2.384741296E0,2.635381568E0
9.042333333E-2,3.163869917E-2,1.022878285E0,2.337001703E0,2.551246353E0
1.004493333E-1,1.514890784E-1,7.627128562E-1,2.159768504E0,2.295491196E0
1.104753333E-1,1.238644928E-1,3.835815860E-1,1.759975074E0,1.805544103E0
1.205023333E-1,6.195826650E-2,-1.440713006E-1,1.232149694E0,1.242090269E0
1.305283333E-1,2.500093997E-2,-6.278903890E-1,7.726674485E-1,9.959349244E-1
1.405543333E-1,-7.682130396E-2,-9.766063437E-1,5.195561010E-1,1.108873304E0
1.505813333E-1,-2.247044045E-1,-1.200923224E0,4.910808916E-1,1.316764634E0
1.606073333E-1,-3.326861054E-1,-1.266125233E0,5.497271490E-1,1.419842628E0
1.706333333E-1,-6.964437300E-1,-1.102815716E0,6.066826840E-1,1.438506257E0
1.806603333E-1,-1.273593151E0,-8.568123901E-1,6.227687397E-1,1.656504721E0
1.906863333E-1,-1.743984693E0,-6.837359762E-1,6.826057094E-1,1.993722160E0
2.007123333E-1,-1.993666649E0,-5.185416090E-1,7.643223023E-1,2.197221129E0
2.107393333E-1,-2.111511433E0,-2.801118160E-1,7.913901599E-1,2.272276732E0
2.207653333E-1,-2.250447709E0,-1.252851469E-1,8.714725292E-1,2.416542081E0
2.307913333E-1,-2.488277943E0,-5.437493943E-2,9.034930515E-1,2.647788407E0
2.408183333E-1,-2.586284879E0,-9.935033351E-2,9.032462990E-1,2.741275951E0
2.508443333E-1,-2.559156722E0,-2.339568193E-1,8.068697132E-1,2.693521423E0
2.608703333E-1,-2.491286336E0,-3.970628534E-1,6.820427687E-1,2.613302289E0
2.708973333E-1,-2.440931284E0,-5.467554478E-1,5.915171993E-1,2.570404569E0
2.809233333E-1,-2.271305897E0,-6.529750172E-1,4.915958121E-1,2.413891732E0
2.909493333E-1,-2.016064993E0,-7.452843529E-1,4.571031600E-1,2.197478128E0
3.009763333E-1,-1.749605622E0,-7.641260552E-1,3.794971597E-1,1.946542204E0
3.110023333E-1,-1.729996399E0,-6.705152754E-1,3.412774193E-1,1.886517573E0
3.210283333E-1,-1.841367731E0,-5.998154946E-1,3.566216096E-1,1.969160410E0
3.310553333E-1,-1.954721854E0,-5.887956128E-1,2.680954224E-1,2.059002903E0
3.410813333E-1,-2.063771256E0,-5.909361322E-1,1.708907247E-1,2.153499698E0
3.511066250E-1,-2.166296335E0,-5.359055737E-1,2.590168161E-1,2.246580581E0
3.611336250E-1,-2.177920600E0,-3.999714046E-1,3.960623217E-1,2.249484525E0
3.711596250E-1,-2.050063629E0,-1.675375658E-1,4.973342695E-1,2.116168966E0
3.811856250E-1,-1.940234208E0,7.931448363E-2,5.705606322E-1,2.023941452E0
3.912126250E-1,-1.827233257E0,2.867500868E-1,5.479769312E-1,1.929063427E0
4.012386250E-1,-1.704649889E0,4.539094108E-1,4.181483515E-1,1.812929409E0
4.112646250E-1,-1.511968346E0,5.170754928E-1,3.131803787E-1,1.628341885E0
4.212916250E-1,-1.196691740E0,5.113073608E-1,2.272556908E-1,1.321041819E0
4.313176250E-1,-9.289395493E-1,4.139608680E-1,2.319773175E-1,1.043123081E0
4.413436250E-1,-6.772245169E-1,1.944512030E-1,2.948253840E-1,7.637842128E-1
4.513706250E-1,-4.820210695E-1,-7.936783947E-2,3.888595752E-1,6.243839641E-1
4.613966250E-1,-1.899315977E-1,-3.568942360E-1,5.017085715E-1,6.443283311E-1
4.714226250E-1,2.447270250E-1,-5.309625569E-1,6.526024765E-1,8.761863648E-1
4.814496250E-1,6.228378099E-1,-6.302237204E-1,6.449853086E-1,1.095953888E0
4.914756250E-1,1.068147136E0,-6.740025549E-1,5.745345461E-1,1.387554573E0
5.015016250E-1,1.573281664E0,-6.507303442E-1,5.565245372E-1,1.791196454E0
5.115286250E-1,1.980962988E0,-4.458770176E-1,4.565048437E-1,2.081205744E0
5.215546250E-1,2.296016230E0,-1.127449159E-1,2.494455819E-1,2.312277026E0
5.315816250E-1,2.605498829E0,1.104998043E-1,4.102523446E-2,2.608163612E0
5.416076250E-1,2.921961835E0,-7.700198293E-3,-1.521346110E-1,2.925929801E0
5.516336250E-1,3.341197257E0,-4.915535659E-1,-6.723018922E-2,3.377831245E0
5.616606250E-1,3.778378953E0,-1.048395972E0,2.679960197E-1,3.930280333E0
5.716866250E-1,4.041818238E0,-1.419105352E0,7.398856187E-1,4.347135309E0
5.817126250E-1,3.946399865E0,-1.682605447E0,9.913082904E-1,4.403172164E0
5.917396250E-1,3.437576913E0,-1.786279651E0,1.160811982E0,4.044158068E0
6.017656250E-1,2.735725093E0,-1.632520098E0,1.428689377E0,3.491484926E0
6.117916250E-1,2.104881860E0,-1.332058583E0,1.526851264E0,2.921674605E0
6.218186250E-1,1.466099862E0,-1.141852313E0,1.264231905E0,2.247567089E0
6.318446250E-1,7.786228377E-1,-1.042377726E0,8.753463095E-1,1.568131375E0
6.418706250E-1,1.830663818E-1,-1.016815818E0,4.684016617E-1,1.134384338E0
6.518976250E-1,-3.174044073E-1,-1.146886327E0,1.732920299E-1,1.202548931E0
6.619236250E-1,-6.771952808E-1,-1.425374883E0,1.376452106E-1,1.584055936E0
6.719496250E-1,-7.534628534E-1,-1.748583528E0,1.441793279E-1,1.909460213E0
6.819766250E-1,-4.171929896E-1,-2.059055623E0,2.552239466E-1,2.116341020E0
6.920026250E-1,2.504964727E-1,-2.194608261E0,3.786779648E-1,2.241082530E0
7.020286250E-1,7.709641546E-1,-1.990670828E0,5.000128059E-1,2.192525685E0
7.120556250E-1,9.005308521E-1,-1.521684225E0,5.947143106E-1,1.865519715E0
7.220816250E-1,8.197334415E-1,-1.089832266E0,5.059097229E-1,1.454524641E0
7.321076250E-1,5.141328084E-1,-8.312081636E-1,3.656410128E-1,1.043519481E0
7.421346250E-1,1.311284888E-1,-6.367208540E-1,3.710223515E-1,7.485089925E-1
7.521606250E-1,-3.243801355E-1,-3.953574398E-1,5.180644032E-1,7.279565257E-1
7.621866250E-1,-7.527097321E-1,-1.018427092E-1,7.101553045E-1,1.039838658E0
7.722136250E-1,-1.211081153E0,2.396536884E-1,8.525641686E-1,1.500338999E0
7.822396250E-1,-1.675743594E0,5.621537979E-1,9.225660112E-1,1.993805790E0
7.922656250E-1,-2.069831895E0,8.170522007E-1,9.023773297E-1,2.401262838E0
8.022926250E-1,-2.494504058E0,9.524807319E-1,7.624422763E-1,2.776884633E0
8.123186250E-1,-2.883925112E0,8.923659463E-1,6.093843900E-1,3.079722450E0
8.223446250E-1,-3.012994797E0,7.068229763E-1,6.499098337E-1,3.162296500E0
8.323716250E-1,-3.138742093E0,5.637721610E-1,6.401122391E-1,3.252581229E0
8.423976250E-1,-3.413015683E0,5.064052744E-1,4.929429375E-1,3.485414623E0
8.524236250E-1,-3.647446346E0,3.998312907E-1,2.397883205E-1,3.677122292E0
8.624506250E-1,-3.787974819E0,3.576554704E-1,5.249381706E-2,3.805184130E0
8.724766250E-1,-3.623879728E0,4.318673082E-1,-7.294986248E-3,3.649529678E0
8.825026250E-1,-3.206142948E0,5.786068395E-1,9.347943664E-3,3.257948106E0
8.925296250E-1,-2.907345550E0,6.975604020E-1,6.026315868E-2,2.990464899E0
9.025556250E-1,-2.541225066E0,7.183134860E-1,7.659326255E-2,2.641905681E0
9.125816250E-1,-2.122740426E0,8.237982796E-1,9.638769552E-2,2.279026351E0
9.226086250E-1,-1.780346773E0,1.029936897E0,1.970172536E-1,2.066209197E0
9.326346250E-1,-1.484015146E0,1.172232691E0,2.903785765E-1,1.913308693E0
9.426606250E-1,-1.124775665E0,1.222950270E0,3.850970381E-1,1.705587110E0
9.526876250E-1,-7.902699065E-1,1.200653521E0,5.916288811E-1,1.554387383E0
9.627136250E-1,-4.801727647E-1,1.182460494E0,8.479195060E-1,1.532235685E0
9.727406250E-1,-2.760049510E-1,1.233905321E0,1.146063185E0,1.706505757E0
9.827666250E-1,-1.228780675E-1,1.245410887E0,1.268369249E0,1.781827109E0
9.927926250E-1,2.004273498E-1,1.135159443E0,1.227958995E0,1.684233172E0
1.002819625E0,4.458285588E-1,9.628760581E-1,1.166730607E0,1.577071247E0
1.012845625E0,7.008864444E-1,7.230261956E-1,1.124107329E0,1.509180564E0
1.022871625E0,1.135738025E0,4.939771637E-1,1.061747870E0,1.631325486E0
1.032898625E0,1.784963150E0,3.546524866E-1,1.013705392E0,2.083139567E0
1.042924625E0,2.502173266E0,2.806249823E-1,9.393202575E-1,2.687367482E0
1.052950625E0,3.090361646E0,1.842777787E-1,9.481037255E-1,3.237776100E0
1.062977625E0,3.323466745E0,5.362042934E-2,1.037502317E0,3.482056492E0
1.073003625E0,3.234811846E0,-4.033511683E-2,1.149301007E0,3.433151236E0
1.083029625E0,2.966585446E0,-4.952942491E-2,1.191801129E0,3.197416505E0
1.093056625E0,2.616006861E0,-1.172322884E-2,1.075896451E0,2.828636156E0
1.103082625E0,2.511252238E0,-2.973225836E-1,7.816855361E-1,2.646851110E0
1.113108625E0,2.735573065E0,-8.364213949E-1,4.315010532E-1,2.892948998E0
1.123135625E0,2.715822340E0,-8.672132711E-1,3.247607162E-1,2.869358703E0
1.133161625E0,2.523322061E0,-2.288471568E-1,2.904749825E-1,2.550274683E0
1.143187625E0,2.371141841E0,2.774373727E-1,4.631630681E-2,2.387766808E0
1.153214625E0,2.210211849E0,3.741400869E-1,-2.544084062E-1,2.256045402E0
1.163240625E0,2.011666718E0,3.339064193E-1,-2.609010082E-1,2.055812690E0
1.173266625E0,1.717771626E0,2.496316695E-1,9.835016727E-2,1.738599460E0
1.183293625E0,1.422394264E0,7.053072318E-2,5.729411799E-1,1.535070559E0
1.193319625E0,1.152207878E0,-1.742367938E-1,9.807920730E-1,1.523120003E0
1.203345625E0,9.662149644E-1,-2.981479181E-1,1.280897493E0,1.631919706E0
1.213372625E0,9.133830321E-1,-3.671469632E-1,1.417027690E0,1.725408047E0
1.223398625E0,1.035996805E0,-4.718637250E-1,1.392782795E0,1.798829806E0
1.233424625E0,1.341530780E0,-5.972104870E-1,1.189343398E0,1.889683285E0
1.243451625E0,1.574210787E0,-7.344380602E-1,8.859113511E-1,1.949968663E0
1.253477625E0,1.740227273E0,-8.780119090E-1,4.209492409E-1,1.994114875E0
1.263503625E0,1.573947662E0,-1.050114323E0,-6.922182396E-2,1.893368162E0
1.273530625E0,9.412555397E-1,-1.089318442E0,-3.957974428E-1,1.493061377E0
1.283556625E0,8.605171859E-2,-9.380436641E-1,-6.566056265E-1,1.148242902E0
1.293582625E0,-7.414854169E-1,-6.997979853E-1,-9.796401715E-1,1.413935186E0
1.303609625E0,-1.518154700E0,-3.316784839E-1,-1.242359664E0,1.989538098E0
1.313635625E0,-2.187939804E0,9.202450320E-2,-1.386720986E0,2.592015469E0
1.323661625E0,-2.676653597E0,4.579646011E-1,-1.440351648E0,3.073893122E0
1.333688625E0,-2.992341846E0,7.187100003E-1,-1.377873126E0,3.371822673E0
1.343715500E0,-3.296170188E0,8.618487431E-1,-1.284343842E0,3.641024618E0
1.353741500E0,-3.557658257E0,8.747376875E-1,-1.164635111E0,3.844277986E0
1.363768500E0,-3.603119774E0,8.503835227E-1,-1.096317998E0,3.861028023E0
1.373794500E0,-3.466297851E0,7.746134019E-1,-1.021682822E0,3.695819598E0
1.383820500E0,-3.305214077E0,6.450481662E-1,-9.598495393E-1,3.501690787E0
1.393847500E0,-3.196242442E0,4.990158556E-1,-1.010943825E0,3.389246228E0
1.403873500E0,-3.064828609E0,3.648321967E-1,-1.067440208E0,3.265839177E0
1.413899500E0,-2.886853983E0,1.544013572E-1,-9.730844195E-1,3.050353911E0
1.423926500E0,-2.650064553E0,-8.944478475E-2,-7.846210577E-1,2.765225616E0
1.433952500E0,-2.416506879E0,-1.667670489E-1,-5.781318994E-1,2.490291798E0
1.443978500E0,-2.176141877E0,-5.769805826E-2,-3.916115673E-1,2.211850392E0
1.454005500E0,-1.911941870E0,1.149314822E-1,-2.585844876E-1,1.932769230E0
1.464031500E0,-1.698343667E0,2.686766356E-1,-2.271046865E-1,1.734397556E0
1.474058500E0,-1.542698972E0,4.150178985E-1,-3.375464572E-1,1.632818908E0
1.484084500E0,-1.437046802E0,5.615584783E-1,-5.225693174E-1,1.628965969E0
1.494110500E0,-1.265892953E0,6.309530143E-1,-7.004894185E-1,1.578376412E0
1.504137500E0,-1.142263518E0,6.411531166E-1,-6.618055554E-1,1.467593219E0
1.514163500E0,-9.494398874E-1,6.117581403E-1,-5.774869515E-1,1.268532736E0
1.524189500E0,-7.425706601E-1,5.000689392E-1,-5.720711142E-1,1.062424345E0
1.534216500E0,-4.952685213E-1,3.345851348E-1,-4.870584458E-1,7.710149482E-1
1.544242500E0,-2.540223438E-1,2.215024692E-1,-3.992964166E-1,5.225211224E-1
1.554268500E0,7.835912168E-2,1.342718057E-1,-3.235796517E-1,3.589886638E-1
1.564295500E0,5.351728445E-1,7.114058778E-2,-2.039678389E-1,5.771254942E-1
1.574321500E0,1.047413494E0,-2.381315120E-2,-1.361519779E-1,1.056493944E0
1.584347500E0,1.611861593E0,-1.139791169E-1,-5.009207323E-2,1.616662689E0
1.594374500E0,2.176490371E0,-1.393555212E-1,1.088365638E-1,2.183661076E0
1.604400500E0,2.606222130E0,-1.126137920E-1,2.353005825E-1,2.619244552E0
1.614426500E0,2.854889009E0,-1.282652535E-2,3.317784713E-1,2.874131648E0
1.624453500E0,3.070471757E0,9.926445253E-2,2.497373579E-1,3.082210082E0
1.634479500E0,3.455446588E0,5.572637714E-2,-2.261834577E-2,3.455969928E0
1.644505500E0,3.859983280E0,-4.099166413E-1,-2.613595761E-1,3.890477015E0
1.654532500E0,4.042129310E0,-8.811446279E-1,-1.477358969E-1,4.139692151E0
1.664558500E0,4.000762598E0,-1.006865319E0,1.165407090E-1,4.127161358E0
1.674584500E0,3.817880988E0,-9.239685389E-1,3.800918216E-1,3.946441802E0
1.684611500E0,3.552817932E0,-9.729137539E-1,7.612026666E-1,3.761449977E0
1.694637500E0,3.138539194E0,-9.117208149E-1,1.150344370E0,3.464816776E0
1.704663500E0,2.750038492E0,-6.506807891E-1,1.389665059E0,3.149169124E0
1.714690500E0,2.378897588E0,-2.725536320E-1,1.465441466E0,2.807304385E0
1.724716500E0,2.040571259E0,3.304488145E-2,1.189512383E0,2.362194474E0
1.734742500E0,1.645930980E0,6.385919631E-2,7.019003516E-1,1.790483424E0
1.744769500E0,1.351935316E0,-1.532354955E-1,3.714853048E-1,1.410394110E0
1.754795500E0,1.249093317E0,-5.376592999E-1,2.513649304E-1,1.382930210E0
1.764821500E0,1.221872190E0,-9.427049182E-1,1.998549074E-1,1.556151084E0
1.774848500E0,1.238338534E0,-1.263707556E0,1.283044298E-1,1.773950714E0
1.784874500E0,1.149066753E0,-1.270076928E0,8.193045482E-2,1.714690178E0
1.794900500E0,9.262428135E-1,-1.077741394E0,-2.908931315E-2,1.421372031E0
1.804927500E0,5.894847071E-1,-1.025244214E0,-2.498585415E-1,1.208737858E0
1.814953500E0,1.592354697E-1,-1.099962713E0,-4.563488692E-1,1.201469182E0
1.824979500E0,-4.189980251E-1,-1.079967209E0,-4.660127087E-1,1.248621785E0
1.835006500E0,-1.072219722E0,-8.981068888E-1,-2.665172589E-1,1.423826733E0
1.845032500E0,-1.732660391E0,-6.957131935E-1,3.110864908E-3,1.867120391E0
1.855058500E0,-2.296981605E0,-4.628667605E-1,1.155018049E-1,2.345998892E0
1.865085500E0,-2.827438670E0,-1.835354016E-1,1.096503501E-1,2.835510162E0
1.875111500E0,-3.301716272E0,3.967036150E-2,1.353933017E-1,3.304729252E0
1.885137500E0,-3.614337072E0,1.578160581E-1,1.457766411E-1,3.620716671E0
1.895164500E0,-3.744469196E0,1.935305589E-1,7.972970903E-2,3.750314715E0
1.905190500E0,-3.832935230E0,2.126545355E-1,-3.649788156E-2,3.839003324E0
1.915216500E0,-3.854526073E0,2.018525355E-1,-1.395585658E-1,3.862329904E0
1.925243500E0,-3.737727356E0,1.457506210E-1,-1.747966647E-1,3.744649904E0
1.935269500E0,-3.429969685E0,1.511929900E-1,-1.836261065E-1,3.438207368E0
1.945295500E0,-3.169418340E0,1.997971661E-1,-1.119759339E-1,3.177683139E0
1.955322500E0,-2.867176933E0,1.881685891E-1,-1.162486406E-1,2.875695521E0
1.965348500E0,-2.520693153E0,1.659824988E-1,-7.632092848E-2,2.527304699E0
1.975374500E0,-2.329392722E0,1.708392692E-1,8.618211150E-3,2.335664955E0
1.985401500E0,-2.205642250E0,1.496705943E-1,1.078466302E-1,2.213343605E0
1.995427500E0,-2.210652729E0,1.437187135E-1,1.405536157E-1,2.219773834E0
2.005454500E0,-2.245212112E0,1.421146030E-1,1.273913871E-1,2.253309245E0
2.015480500E0,-2.150895354E0,1.375482199E-1,2.664978169E-1,2.171702425E0
2.025506500E0,-1.974533975E0,2.268810305E-1,4.905252600E-1,2.047162536E0
2.035533500E0,-1.824827127E0,3.361300423E-1,6.468741055E-1,1.965050523E0
2.045559500E0,-1.647982768E0,3.244850200E-1,8.655593862E-1,1.889531895E0
2.055585500E0,-1.408235816E0,3.239732424E-1,1.083139251E0,1.805900721E0
2.065612500E0,-1.113085327E0,3.720595745E-1,1.167683557E0,1.655557961E0
2.075638500E0,-6.359390813E-1,3.581092143E-1,1.211120914E0,1.414027791E0
2.085664500E0,-1.060094351E-1,3.070525698E-1,1.190683580E0,1.234198796E0
2.095691500E0,3.792761350E-1,1.952941523E-1,1.188004386E0,1.262277550E0
2.105717500E0,8.493618679E-1,-2.569785498E-2,1.101357421E0,1.391065825E0
2.115743500E0,1.459718211E0,-3.579463693E-1,1.044458896E0,1.830245132E0
2.125770500E0,2.105406940E0,-6.292313748E-1,1.085157710E0,2.450762690E0
2.135796500E0,2.608631768E0,-8.129815885E-1,1.165737019E0,2.970663488E0
2.145822500E0,2.926236734E0,-8.416853508E-1,1.265732739E0,3.297480102E0
2.155849500E0,2.939349700E0,-5.956259646E-1,1.259578398E0,3.252857927E0
2.165875500E0,2.510097413E0,-1.992242121E-1,1.060360837E0,2.732150145E0
2.175901500E0,2.064816154E0,7.791941106E-2,7.144870681E-1,2.186327732E0
2.185928500E0,2.097170552E0,2.188685909E-3,2.859292839E-1,2.116573805E0
2.195954500E0,2.478386793E0,-4.094293490E-1,-3.068852663E-2,2.512165455E0
2.205980500E0,2.638170147E0,-7.052715638E-1,-4.921542943E-2,2.731258293E0
2.216007500E0,2.545472483E0,-4.824394378E-1,3.141650498E-2,2.590977609E0
2.226033500E0,2.371600263E0,6.048564523E-2,-5.618881881E-2,2.373036769E0
2.236059500E0,2.302596686E0,3.448908524E-1,-3.123307782E-1,2.349138505E0
2.246086500E0,2.304681804E0,2.742905474E-1,-4.658991265E-1,2.367246400E0
2.256112500E0,2.244930276E0,1.416028985E-1,-3.623402596E-1,2.278388419E0
2.266138500E0,2.122800068E0,-2.621657610E-2,-4.694963336E-2,2.123481035E0
2.276165500E0,1.870700288E0,-2.273544357E-1,3.661390494E-1,1.919705033E0
2.286191500E0,1.535877610E0,-3.749460525E-1,8.019858263E-1,1.772762207E0
2.296217500E0,1.406875754E0,-4.867739057E-1,1.142631162E0,1.876660383E0
2.306244500E0,1.499265854E0,-6.030250313E-1,1.275943001E0,2.058996802E0
2.316270500E0,1.554819666E0,-6.438359653E-1,1.218089480E0,2.077433735E0
2.326296500E0,1.407190334E0,-5.854523941E-1,1.004172603E0,1.825185404E0
2.336323500E0,1.086966984E0,-4.637087595E-1,6.277687669E-1,1.338139254E0
2.346349083E0,7.004098964E-1,-4.730223508E-1,1.959103757E-1,8.675857552E-1
2.356375083E0,2.139203846E-1,-5.306067538E-1,-1.413043982E-1,5.892982192E-1
2.366402083E0,-4.174099213E-1,-4.295879904E-1,-4.244577165E-1,7.341261724E-1
2.376428083E0,-1.158138124E0,-2.158861820E-1,-7.638763060E-1,1.404064731E0
2.386454083E0,-1.843017231E0,5.316719703E-2,-1.164261474E0,2.180606348E0
2.396481083E0,-2.383575945E0,3.817659159E-1,-1.522516284E0,2.853985869E0
2.406507083E0,-2.824036760E0,7.128851502E-1,-1.832447950E0,3.441112371E0
2.416534083E0,-3.136054713E0,9.483365909E-1,-1.971138935E0,3.823554649E0
2.426560083E0,-3.370178981E0,1.074272387E0,-1.990370135E0,4.058785631E0
2.436586083E0,-3.540182099E0,1.034107351E0,-1.861452771E0,4.131255708E0
2.446613083E0,-3.626879350E0,8.935758814E-1,-1.562825673E0,4.049093202E0
2.456639083E0,-3.604630110E0,7.285140268E-1,-1.163392870E0,3.857145821E0
2.466665083E0,-3.562524310E0,5.796712155E-1,-8.671761413E-1,3.712087369E0
2.476692083E0,-3.344391591E0,4.301757087E-1,-6.713995206E-1,3.438136642E0
2.486718083E0,-3.000746634E0,3.784153517E-1,-4.791803460E-1,3.062236494E0
2.496744083E0,-2.712406397E0,4.080732335E-1,-3.620438057E-1,2.766721515E0
2.506771083E0,-2.405350392E0,4.016491900E-1,-2.330787867E-1,2.449766989E0
2.516797083E0,-1.975184185E0,4.287447854E-1,-4.705619887E-2,2.021729196E0
2.526823083E0,-1.597586786E0,5.783888845E-1,7.384390175E-2,1.700667563E0
2.536850083E0,-1.448131369E0,7.003164871E-1,9.404237732E-2,1.611326042E0
2.546876083E0,-1.390980683E0,7.042275435E-1,5.498122260E-2,1.560059816E0
2.556902083E0,-1.324451648E0,6.651381759E-1,4.745366335E-2,1.482846186E0
2.566929083E0,-1.228416978E0,7.433527252E-1,6.145716012E-2,1.437135529E0
2.576955083E0,-1.296171005E0,8.406924936E-1,-8.838417292E-2,1.547460793E0
2.586981083E0,-1.374903179E0,8.240081947E-1,-3.107878442E-1,1.632769837E0
2.597008083E0,-1.246702391E0,7.828136102E-1,-4.308075003E-1,1.533838030E0
2.607034083E0,-1.049218529E0,7.229691853E-1,-4.085211302E-1,1.338070805E0
2.617060083E0,-7.960253209E-1,5.935003556E-1,-2.372871740E-1,1.020884022E0
2.627087083E0,-4.635602403E-1,4.230463448E-1,-1.533736360E-1,6.460493622E-1
2.637113083E0,7.501977682E-3,2.993081519E-1,-1.612252772E-1,3.400518188E-1
2.647139083E0,6.192733473E-1,2.497866207E-1,-2.068031538E-1,6.990424729E-1
2.657166083E0,1.183007501E0,1.929867679E-1,-1.668818736E-1,1.210206677E0
2.667192083E0,1.893397425E0,7.996710598E-2,-4.320683062E-2,1.895577848E0
2.677218083E0,2.910943342E0,-6.893209442E-3,2.674614380E-1,2.923213006E0
2.687245083E0,3.769340327E0,-2.183518432E-2,5.173153017E-1,3.804736312E0
2.697271083E0,3.971488513E0,9.291613050E-2,5.552970605E-1,4.011197981E0
2.707297083E0,3.985243503E0,2.018898115E-1,2.304093866E-1,3.997000595E0
2.717324083E0,4.091869234E0,1.026949409E-1,-1.505769128E-1,4.095926451E0
2.727350083E0,4.254608940E0,-2.778903857E-1,-2.651554424E-1,4.271911482E0
2.737376083E0,4.226097332E0,-5.462030321E-1,-1.005580759E-1,4.262434556E0
2.747403083E0,3.905203891E0,-5.986776265E-1,1.672337298E-1,3.954364608E0
2.757429083E0,3.411876646E0,-6.889256725E-1,4.562769485E-1,3.510514133E0
2.767456083E0,3.000463044E0,-8.459905095E-1,7.807915699E-1,3.213738306E0
2.777482083E0,2.583036751E0,-7.997268277E-1,1.030079569E0,2.893562816E0
2.787508083E0,2.082813299E0,-5.325055640E-1,1.279327662E0,2.501669978E0
2.797535083E0,1.709831107E0,-3.340314766E-1,1.457450515E0,2.271400767E0
2.807561083E0,1.522730731E0,-3.332028531E-1,1.498229728E0,2.162041937E0
2.817587083E0,1.520640351E0,-4.708243094E-1,1.469296974E0,2.166300119E0
2.827614083E0,1.542043499E0,-7.792823305E-1,1.381387887E0,2.212105694E0
2.837640083E0,1.552692448E0,-1.141477360E0,1.197612677E0,2.268942601E0
2.847666083E0,1.659476055E0,-1.217136310E0,8.671279018E-1,2.233202269E0
2.857693083E0,1.743411666E0,-1.068226950E0,4.167766678E-1,2.086694958E0
2.867719083E0,1.608811685E0,-9.370458367E-1,1.418300629E-2,1.861862266E0
2.877745083E0,1.141812698E0,-7.073607009E-1,-3.589677317E-1,1.390306883E0
2.887772083E0,6.015013200E-1,-5.133656538E-1,-5.398459393E-1,9.574872169E-1
2.897798083E0,2.537983954E-1,-4.779340851E-1,-6.498515077E-1,8.456604503E-1
2.907824083E0,-1.760859758E-1,-4.904243224E-1,-6.476190408E-1,8.312236214E-1
2.917851083E0,-7.995225406E-1,-4.463559046E-1,-5.981907727E-1,1.093755954E0
2.927877083E0,-1.434512619E0,-4.224168190E-1,-4.284080954E-1,1.555569323E0
2.937903083E0,-1.845644385E0,-3.325589284E-1,-2.130181593E-1,1.887425594E0
2.947930083E0,-2.140131800E0,-1.213206616E-1,-1.800989199E-1,2.151120276E0
2.957956083E0,-2.444506271E0,1.701071978E-2,-3.523882985E-1,2.469833555E0
2.967982083E0,-2.831921146E0,6.677081734E-2,-4.895043361E-1,2.874691325E0
2.978009083E0,-3.289955183E0,3.827236533E-2,-5.330777872E-1,3.333082928E0
2.988035083E0,-3.703878994E0,-7.761009336E-3,-5.257804620E-1,3.741019237E0
2.998061083E0,-4.017710168E0,-1.275097932E-1,-5.089817038E-1,4.051828737E0
3.008088083E0,-4.265687660E0,-2.450164622E-1,-5.075850964E-1,4.302762707E0
3.018114083E0,-4.377498118E0,-3.518456038E-1,-4.195337762E-1,4.411608968E0
3.028140083E0,-4.365421863E0,-4.377260721E-1,-2.712874174E-1,4.395692098E0
3.038167083E0,-4.158611693E0,-5.331237609E-1,-8.977975711E-2,4.193606152E0
3.048193083E0,-3.732224541E0,-6.083568880E-1,8.396133900E-2,3.782412938E0
3.058219083E0,-3.240857282E0,-4.565573955E-1,1.047658785E-1,3.274534542E0
3.068246083E0,-2.813560304E0,-1.632476098E-1,3.893324688E-2,2.818561187E0
3.078272083E0,-2.408661670E0,2.200278014E-2,-7.132199764E-2,2.409817833E0
3.088298083E0,-2.202629764E0,4.992060363E-2,-1.151158887E-1,2.206200719E0
3.098325083E0,-2.156076572E0,-3.142257147E-2,3.668981642E-3,2.156308657E0
3.108351083E0,-1.999302780E0,-1.030869967E-1,2.593316156E-1,2.018685568E0
3.118378083E0,-1.751338736E0,-1.674943694E-1,5.438577139E-1,1.841473037E0
3.128404083E0,-1.456790510E0,-2.419838769E-1,8.230407728E-1,1.690618497E0
3.138430083E0,-1.203057604E0,-2.493331692E-1,1.146992161E0,1.680805059E0
3.148457083E0,-1.075953754E0,-1.779082605E-1,1.370612492E0,1.751544014E0
3.158483083E0,-9.377284992E-1,-1.061260139E-1,1.431543256E0,1.714617615E0
3.168509083E0,-5.226867002E-1,-1.209495827E-1,1.460719693E0,1.556127312E0
3.178536083E0,-6.237224936E-2,-1.407383146E-1,1.539433741E0,1.547111442E0
3.188562083E0,3.787867230E-1,-1.571731567E-1,1.556810642E0,1.609919923E0
3.198588083E0,9.434868371E-1,-2.463705312E-1,1.433723976E0,1.733906078E0
3.208615083E0,1.605891001E0,-4.029962423E-1,1.336265363E0,2.127650582E0
3.218641083E0,2.334264622E0,-4.477581400E-1,1.395754350E0,2.756339762E0
3.228667083E0,2.877936394E0,-3.232447524E-1,1.595409429E0,3.306408369E0
3.238694083E0,2.999751438E0,-1.243286886E-1,1.719574761E0,3.459899373E0
3.248720083E0,2.617033047E0,8.452895746E-2,1.577840884E0,3.057055605E0
3.258746083E0,1.995694463E0,2.332229206E-1,1.259690811E0,2.371499581E0
3.268773083E0,1.655686474E0,2.123462411E-1,9.249349375E-1,1.908374509E0
3.278799083E0,1.772676980E0,-5.332251370E-2,4.795406806E-1,1.837167992E0
3.288825083E0,2.024138244E0,-4.663671961E-1,2.128292942E-1,2.088044612E0
3.298852083E0,2.101443697E0,-6.145084512E-1,1.029051483E-1,2.191865808E0
3.308878083E0,2.183056794E0,-4.407897207E-1,-4.293727398E-2,2.227526915E0
3.318904083E0,2.387681276E0,-2.896408772E-1,-2.110203119E-1,2.414424007E0
3.328931083E0,2.551151884E0,-2.942356192E-1,-1.954521002E-1,2.575490644E0
3.338957083E0,2.564116915E0,-3.532048622E-1,2.486809123E-1,2.600248339E0
3.348983083E0,2.416675279E0,-4.271654159E-1,8.559481716E-1,2.599122346E0
3.359010083E0,2.212340235E0,-5.611015183E-1,1.336504952E0,2.644906372E0
3.369036083E0,2.074366996E0,-6.917971670E-1,1.640508126E0,2.733651160E0
3.379062083E0,2.036757120E0,-9.307518938E-1,1.712288691E0,2.818973433E0
3.389089083E0,2.032483390E0,-1.211248676E0,1.766632129E0,2.952812416E0
3.399115083E0,1.923167354E0,-1.204142701E0,1.805496233E0,2.899715324E0
3.409141083E0,1.713811891E0,-9.459379900E-1,1.709374439E0,2.598828746E0
3.419168083E0,1.425545329E0,-5.981993242E-1,1.355631195E0,2.056151223E0
3.429194083E0,1.018173907E0,-3.418643336E-1,6.373102534E-1,1.248884978E0
3.439220083E0,4.235383880E-1,-2.231564272E-1,-1.893473147E-1,5.148164359E-1
3.449247083E0,-3.030185026E-1,-5.934960432E-2,-8.700582339E-1,9.232247391E-1
3.459273083E0,-1.092770931E0,2.160134686E-1,-1.381181480E0,1.774393532E0
3.469300083E0,-1.948911476E0,4.970872246E-1,-1.899227830E0,2.766300417E0
3.479326083E0,-2.705251159E0,7.324236944E-1,-2.378376601E0,3.675799717E0
3.489352083E0,-3.457562111E0,9.275206494E-1,-2.761060494E0,4.520894309E0
3.499379083E0,-3.999195544E0,1.042854420E0,-2.905424740E0,5.051990030E0
3.509405083E0,-4.225973956E0,1.024375976E0,-2.818220243E0,5.181753309E0
3.519431083E0,-4.066506352E0,8.664839040E-1,-2.385970088E0,4.793758601E0
3.529458083E0,-3.766952909E0,7.422892629E-1,-1.828543033E0,4.252587118E0
3.539484083E0,-3.623649933E0,6.566912151E-1,-1.510376441E0,3.980366714E0
3.549510083E0,-3.472166117E0,4.371999688E-1,-1.266032116E0,3.721547887E0
3.559537083E0,-3.067254034E0,2.303153926E-1,-9.567284417E-1,3.221245381E0
3.569563083E0,-2.560043744E0,1.510851089E-1,-6.711472133E-1,2.650865758E0
3.579589083E0,-2.101961176E0,1.407899894E-2,-5.550248726E-1,2.174049588E0
3.589616083E0,-1.803313467E0,-1.932237263E-1,-5.673910028E-1,1.900317715E0
3.599642083E0,-1.681783767E0,-3.620028752E-1,-6.280962110E-1,1.831378599E0
3.609668083E0,-1.593882574E0,-3.630558126E-1,-6.433285001E-1,1.756742082E0
3.619695083E0,-1.513969848E0,-2.504098608E-1,-5.938790359E-1,1.645448907E0
3.629721083E0,-1.451165489E0,-1.208685987E-1,-4.917895742E-1,1.536992999E0
3.639747083E0,-1.345205755E0,3.931229264E-2,-3.530689144E-1,1.391323700E0
3.649774083E0,-1.190930479E0,2.721639881E-1,-2.510947891E-1,1.247171694E0
3.659800083E0,-1.159071339E0,4.957362255E-1,-2.066015710E-1,1.277452537E0
3.669826083E0,-1.050894341E0,6.987088683E-1,-1.979542699E-1,1.277403183E0
3.679853083E0,-9.157774669E-1,8.835984850E-1,-2.070864514E-1,1.289294167E0
3.689879083E0,-8.571339869E-1,9.554989184E-1,-2.211574835E-1,1.302523507E0
3.699906083E0,-6.152639115E-1,8.269559953E-1,-3.495829506E-1,1.088399806E0
3.709932083E0,-2.492860991E-1,6.671639438E-1,-5.497365046E-1,8.997007900E-1
3.719958083E0,1.483795291E-1,5.189381965E-1,-6.526194334E-1,8.468916467E-1
3.729985083E0,4.910632038E-1,4.043166898E-1,-7.109521338E-1,9.539748385E-1
3.740011083E0,8.493624526E-1,2.781352378E-1,-7.310627550E-1,1.154655160E0
3.750037083E0,1.404062659E0,1.800828400E-1,-7.719318688E-1,1.612358703E0
3.760064083E0,2.038828204E0,1.520086035E-2,-8.665652534E-1,2.215397673E0
3.770090083E0,2.857206845E0,-1.078037263E-1,-7.659374495E-1,2.960052833E0
3.780116083E0,3.723154925E0,-1.128921926E-1,-4.461209196E-1,3.751486521E0
3.790143083E0,4.295483902E0,1.041339406E-1,-1.318004800E-1,4.298766939E0
3.800169083E0,4.542884858E0,2.928791383E-1,-7.046187222E-2,4.552861287E0
3.810195083E0,4.747242122E0,1.349458435E-1,-2.255499119E-1,4.754512689E0
3.820222083E0,4.777737105E0,-1.534576897E-1,-2.797245111E-1,4.788378318E0
3.830248083E0,4.461121488E0,-2.901022956E-1,-1.812180769E-1,4.474215491E0
3.840274083E0,4.003235385E0,-3.375637796E-1,-1.281418772E-1,4.019485439E0
3.850301083E0,3.615728125E0,-5.102623902E-1,2.904136598E-2,3.651670985E0
3.860327083E0,3.234677360E0,-6.648425992E-1,4.055358343E-1,3.327102736E0
3.870353083E0,2.808104267E0,-5.871807580E-1,7.427054384E-1,2.963417316E0
3.880380083E0,2.444734313E0,-2.983473813E-1,9.337136547E-1,2.633924488E0
3.890406083E0,2.092602122E0,-1.306300867E-1,8.031289570E-1,2.245231388E0
3.900432083E0,1.604164318E0,-2.092562069E-1,4.692454880E-1,1.684435409E0
3.910459083E0,1.136581779E0,-4.151164971E-1,2.723182815E-1,1.240281054E0
3.920485083E0,7.543586469E-1,-7.095920715E-1,1.574929994E-1,1.047559984E0
3.930511083E0,5.659087336E-1,-1.205503933E0,9.660828173E-2,1.335224920E0
3.940538083E0,5.542131329E-1,-1.649942462E0,1.738622797E-1,1.749197078E0
3.950564083E0,5.405370802E-1,-1.796876121E0,2.957293636E-1,1.899578897E0
3.960591083E0,4.473055655E-1,-1.715736794E0,4.665778421E-1,1.833447545E0
3.970617083E0,2.486358887E-1,-1.473600963E0,5.331869839E-1,1.586697187E0
3.980643083E0,6.705411494E-2,-1.266250071E0,4.400550181E-1,1.342212322E0
3.990670083E0,-1.371727556E-1,-1.199604238E0,2.168363911E-1,1.226737427E0
4.000696083E0,-4.190833944E-1,-1.130124260E0,1.446957833E-1,1.213980479E0
4.010722083E0,-8.777670568E-1,-9.508593721E-1,1.872364698E-1,1.307541987E0
4.020749083E0,-1.420400949E0,-7.133389673E-1,1.570696610E-1,1.597204500E0
4.030775083E0,-1.883982823E0,-4.453392930E-1,1.001031625E-1,1.938488847E0
4.040801083E0,-2.283669249E0,-2.012026906E-1,1.179563199E-1,2.295548182E0
4.050828083E0,-2.664602485E0,3.722878352E-2,2.027633125E-1,2.672565312E0
4.060854083E0,-2.929593036E0,2.492954546E-1,9.368935168E-2,2.941673210E0
4.070880083E0,-3.155452266E0,3.673655029E-1,-1.770536900E-1,3.181695212E0
4.080907083E0,-3.384140963E0,4.672189893E-1,-4.795256241E-1,3.449731651E0
4.090933083E0,-3.489278578E0,5.351928712E-1,-6.714619397E-1,3.593376900E0
4.100959083E0,-3.565309923E0,4.938286445E-1,-7.176552357E-1,3.670194902E0
4.110986083E0,-3.563101430E0,4.627505471E-1,-6.535586424E-1,3.651981485E0
4.121012083E0,-3.499376720E0,4.720582911E-1,-4.982283819E-1,3.566049351E0
4.131038083E0,-3.318789557E0,5.166156824E-1,-2.198213947E-1,3.365943751E0
4.141065083E0,-2.990694101E0,6.254922996E-1,1.463854824E-1,3.058908389E0
4.151091083E0,-2.779233640E0,7.342793083E-1,4.347491084E-1,2.907286108E0
4.161117083E0,-2.608731755E0,7.730488332E-1,6.192955667E-1,2.790450298E0
4.171144083E0,-2.319179975E0,7.879856917E-1,7.462025119E-1,2.560534201E0
4.181170083E0,-2.110230893E0,8.078881520E-1,8.353515007E-1,2.409059945E0
4.191196083E0,-2.023252391E0,7.933639607E-1,8.550775212E-1,2.335408782E0
4.201223083E0,-1.926877998E0,8.399741632E-1,9.307504320E-1,2.298850099E0
4.211249083E0,-1.823047820E0,9.266360387E-1,1.002454399E0,2.277514550E0
4.221276083E0,-1.622880086E0,9.487689194E-1,1.066364174E0,2.161257687E0
4.231302083E0,-1.409126932E0,9.728802055E-1,1.091158122E0,2.030458237E0
4.241328083E0,-1.250732877E0,1.075929780E0,9.052442926E-1,1.881867384E0
4.251355083E0,-9.866199929E-1,1.134127848E0,6.456271867E-1,1.636001055E0
4.261381083E0,-5.587470639E-1,1.073992451E0,4.803727394E-1,1.302465368E0
4.271407083E0,-3.434011281E-2,8.994513099E-1,4.910183264E-1,1.025324777E0
4.281434083E0,4.903936976E-1,6.465323357E-1,4.361164798E-1,9.212424348E-1
4.291460083E0,1.248881648E0,3.766866955E-1,3.202565329E-1,1.343191157E0
4.301486083E0,2.010960959E0,1.331836389E-1,2.807505512E-1,2.034827445E0
4.311513083E0,2.728138915E0,-1.850779702E-1,3.741240071E-1,2.759884883E0
4.321539083E0,3.125793434E0,-4.025799206E-1,5.828253132E-1,3.205049224E0
4.331565083E0,3.204813291E0,-4.843605405E-1,7.876702344E-1,3.335544597E0
4.341592083E0,3.080752916E0,-4.231388770E-1,8.494979618E-1,3.223620919E0
4.351617750E0,2.885876913E0,-2.186083898E-1,7.809032518E-1,2.997646589E0
4.361643750E0,3.068328753E0,-3.158129413E-1,4.366988625E-1,3.115298548E0
4.371670750E0,3.569232236E0,-7.781328410E-1,2.426569645E-1,3.661118937E0
4.381696750E0,3.711076916E0,-8.938115242E-1,5.038276756E-1,3.850303007E0
4.391722750E0,3.398269590E0,-4.310615619E-1,8.445781146E-1,3.528081982E0
4.401749750E0,2.995174822E0,-1.180216625E-2,9.060346900E-1,3.129234789E0
4.411775750E0,2.915825182E0,1.908750460E-2,8.502401197E-1,3.037319392E0
4.421801750E0,2.746150678E0,7.625660911E-2,8.936545265E-1,2.888905854E0
4.431828750E0,2.309574754E0,3.051300783E-1,1.048892693E0,2.554880778E0
4.441854750E0,1.915879970E0,5.559506330E-1,1.200062075E0,2.328052007E0
4.451881750E0,1.652645338E0,6.535481174E-1,1.180317782E0,2.133427248E0
4.461907750E0,1.413832771E0,6.485165884E-1,1.146999178E0,1.932641711E0
4.471933750E0,1.400394115E0,5.073409751E-1,9.683328259E-1,1.776560442E0
4.481960750E0,1.582274097E0,1.970441508E-1,8.090400535E-1,1.788005460E0
4.491986750E0,1.838543526E0,-1.542714760E-2,7.410959923E-1,1.982347993E0
4.502012750E0,1.772359477E0,-3.971779704E-2,5.056857745E-1,1.843516672E0
4.512039750E0,1.377298783E0,-8.320558637E-2,-7.420467496E-2,1.381803691E0
4.522065750E0,8.793896592E-1,-1.280108996E-1,-6.700039364E-1,1.112932270E0
4.532091750E0,5.055298001E-1,-2.214836119E-1,-9.973246367E-1,1.139856044E0
4.542118750E0,2.341400564E-1,-3.155256969E-1,-1.079965674E0,1.149218817E0
4.552144750E0,-2.327168441E-1,-2.512167035E-1,-1.107859086E0,1.159576955E0
4.562170750E0,-9.440633726E-1,-8.405182466E-2,-1.146236116E0,1.487339099E0
4.572197750E0,-1.718937560E0,1.380817784E-1,-1.188078353E0,2.094121077E0
4.582223750E0,-2.316688476E0,3.281552441E-1,-1.184563884E0,2.622579447E0
4.592249750E0,-2.807621872E0,4.884806348E-1,-1.055846641E0,3.039106124E0
4.602276750E0,-3.284878045E0,5.484957254E-1,-1.093905875E0,3.505410304E0
4.612302750E0,-3.712179701E0,4.291558081E-1,-1.103793809E0,3.896513007E0
4.622328750E0,-3.864796123E0,2.860131915E-1,-9.511770952E-1,3.990387260E0
4.632355750E0,-3.799374551E0,1.585418437E-1,-6.976628745E-1,3.866150020E0
4.642381750E0,-3.728871163E0,5.214810044E-2,-5.759975195E-1,3.773456336E0
4.652407750E0,-3.532470206E0,-1.250150055E-1,-4.434424563E-1,3.562389047E0
4.662434750E0,-3.156187845E0,-1.838993177E-1,-4.097377896E-1,3.187981451E0
4.672460750E0,-2.855079628E0,-9.537028000E-2,-5.093310750E-1,2.901722474E0
4.682487750E0,-2.490640803E0,-1.052722473E-1,-6.530673301E-1,2.576988706E0
4.692513750E0,-2.209164028E0,-2.056025742E-1,-7.535271728E-1,2.343177612E0
4.702539750E0,-2.076502984E0,-3.480115114E-1,-6.416295916E-1,2.201060014E0
4.712566750E0,-2.066655103E0,-4.422973522E-1,-4.568109454E-1,2.162259583E0
4.722592750E0,-2.101341956E0,-4.735684808E-1,-2.487902552E-1,2.168363833E0
4.732618750E0,-2.024230630E0,-3.397569971E-1,2.893845499E-2,2.052749837E0
4.742645750E0,-1.966478850E0,-1.461652616E-1,1.316200934E-1,1.976291274E0
4.752671750E0,-1.795698053E0,2.744302958E-2,5.023518384E-2,1.796610195E0
4.762697750E0,-1.735066520E0,2.008392861E-1,-1.642137891E-1,1.754354131E0
4.772724750E0,-1.658029454E0,3.228733081E-1,-4.693057144E-1,1.753156210E0
4.782750750E0,-1.377405787E0,3.477048980E-1,-6.764808972E-1,1.573458548E0
4.792776750E0,-1.027176865E0,3.925288492E-1,-6.424546337E-1,1.273545903E0
4.802803750E0,-5.773815554E-1,4.605717283E-1,-5.159086078E-1,9.009203456E-1
4.812829750E0,1.901923835E-2,4.721470226E-1,-3.587532851E-1,5.932861552E-1
4.822855750E0,5.147619689E-1,4.164081471E-1,-1.947634444E-1,6.901510188E-1
4.832882750E0,9.660869104E-1,2.880877836E-1,-5.442208260E-2,1.009594103E0
4.842908750E0,1.687685362E0,1.681822944E-1,3.686260164E-2,1.696445112E0
4.852934750E0,2.278132521E0,1.606434792E-1,1.835046306E-1,2.291149943E0
4.862961750E0,2.733164012E0,1.852123100E-1,2.258720934E-1,2.748728310E0
4.872987750E0,3.085390928E0,1.430576858E-1,7.113927215E-2,3.089524798E0
4.883014750E0,3.326489171E0,1.604918902E-1,-1.060120663E-1,3.332045379E0
4.893040750E0,3.584456046E0,1.165424632E-1,-3.645043141E-1,3.604826027E0
4.903066750E0,3.887418416E0,-2.728761059E-1,-6.357303357E-1,3.948497989E0
4.913093750E0,4.092829932E0,-8.471371485E-1,-6.462452374E-1,4.229247109E0
4.923119750E0,3.980041820E0,-1.259368483E0,-3.630683841E-1,4.190293607E0
4.933145750E0,3.541507663E0,-1.385174398E0,-9.089906037E-2,3.803846379E0
4.943172750E0,3.029596211E0,-1.410527925E0,7.684059978E-2,3.342745385E0
4.953198750E0,2.599899536E0,-1.385395423E0,2.813509141E-1,2.959384465E0
4.963224750E0,2.083965200E0,-1.320440458E0,3.791662073E-1,2.496045066E0
4.973251750E0,1.524513547E0,-1.100797988E0,5.093179187E-1,1.948153615E0
4.983277750E0,1.070630448E0,-8.907464138E-1,5.164866051E-1,1.485408073E0
4.993303750E0,9.310796303E-1,-8.620707911E-1,5.535237461E-1,1.384364065E0
5.003330750E0,1.099478272E0,-1.036988786E0,5.972451317E-1,1.625084600E0
5.013356750E0,1.482668533E0,-1.295838298E0,5.724481134E-1,2.050658361E0
5.023382750E0,1.788722325E0,-1.383768142E0,5.454813395E-1,2.326347291E0
5.033409750E0,1.843917702E0,-1.312630332E0,4.811352164E-1,2.313984005E0
5.043435750E0,1.889061715E0,-1.193692996E0,5.626654293E-1,2.304354468E0
5.053461750E0,1.642880487E0,-9.902816655E-1,5.199496186E-1,1.987476208E0
5.063488750E0,9.795910549E-1,-8.293091342E-1,3.414966899E-1,1.328146176E0
5.073514750E0,2.683228791E-1,-7.324824589E-1,1.234861779E-1,7.897952622E-1
5.083540750E0,-2.623873705E-1,-7.942784652E-1,-7.214119256E-2,8.396009553E-1
5.093567750E0,-7.138076216E-1,-8.623681220E-1,-7.405849457E-2,1.121911208E0
5.103593750E0,-1.224929114E0,-7.800483888E-1,3.294964492E-2,1.452588208E0
5.113620750E0,-1.740414968E0,-5.887891808E-1,1.054568732E-1,1.840336413E0
5.123646750E0,-2.214348754E0,-3.324361369E-1,4.428856552E-2,2.239601676E0
5.133672750E0,-2.587442628E0,-3.981654190E-2,-6.291267827E-2,2.588513611E0
5.143699750E0,-2.874063199E0,2.763572457E-1,-2.943102443E-1,2.902280330E0
5.153725750E0,-3.070776397E0,5.073208022E-1,-5.154308903E-1,3.154791765E0
5.163751750E0,-3.123977873E0,6.762760985E-1,-6.193785971E-1,3.255797439E0
5.173778750E0,-3.158542519E0,8.179538414E-1,-6.813134748E-1,3.333110767E0
5.183804750E0,-3.209954748E0,8.981881651E-1,-6.458179522E-1,3.395236706E0
5.193830750E0,-3.155030097E0,9.139442186E-1,-5.229578649E-1,3.326107917E0
5.203857750E0,-2.989987172E0,8.884747705E-1,-3.480052257E-1,3.138553544E0
5.213883750E0,-2.898746635E0,8.302392069E-1,-1.246838339E-1,3.017875950E0
5.223909750E0,-2.894403323E0,7.197829644E-1,1.118079726E-1,2.984653939E0
5.233936750E0,-2.681314412E0,6.384189586E-1,4.163473360E-1,2.787538493E0
5.243962750E0,-2.414855041E0,6.430297074E-1,6.890785772E-1,2.592265681E0
5.253988750E0,-2.307510687E0,6.737775832E-1,7.695157993E-1,2.524031768E0
5.264015750E0,-2.234316995E0,5.712487764E-1,7.892459129E-1,2.437500094E0
5.274041750E0,-2.142174232E0,4.552042767E-1,8.067315727E-1,2.333867435E0
5.284067750E0,-2.077032741E0,4.670128749E-1,8.050257938E-1,2.276012426E0
5.294094750E0,-2.039153309E0,4.146797101E-1,8.216915278E-1,2.237248857E0
5.304120750E0,-1.999343711E0,2.226904041E-1,7.705739991E-1,2.154240139E0
5.314147750E0,-2.004941835E0,3.633145519E-2,6.311190753E-1,2.102242380E0
5.324173750E0,-1.920082363E0,-7.775305778E-2,5.311774421E-1,1.993717958E0
5.334199750E0,-1.496305994E0,-2.365075940E-1,6.054353267E-1,1.631385731E0
5.344226750E0,-7.282022971E-1,-3.481186616E-1,8.282825093E-1,1.156510745E0
5.354252958E0,-1.775097728E-2,-3.160709497E-1,8.680733965E-1,9.239953270E-1
5.364278958E0,5.168909401E-1,-3.029008274E-1,6.602073652E-1,8.915149579E-1
5.374305958E0,1.140944386E0,-4.262874565E-1,5.062864298E-1,1.319015177E0
5.384331958E0,1.725716822E0,-5.366896123E-1,4.763849384E-1,1.868977501E0
5.394357958E0,2.299946728E0,-6.686401465E-1,4.603300922E-1,2.439003565E0
5.404384958E0,2.742387995E0,-7.753095129E-1,5.433688867E-1,2.901214660E0
5.414410958E0,2.863274501E0,-7.896267128E-1,6.329371208E-1,3.036850443E0
5.424436958E0,2.661967730E0,-6.519967049E-1,7.744911951E-1,2.847983235E0
5.434463958E0,2.330193790E0,-4.902310719E-1,7.592075966E-1,2.499305059E0
5.444489958E0,2.279944573E0,-6.227286132E-1,5.767249131E-1,2.432806981E0
5.454515958E0,2.643044971E0,-9.818624058E-1,3.865313601E-1,2.845900032E0
5.464542958E0,2.942843996E0,-1.148585674E0,4.376178986E-1,3.189214521E0
5.474568958E0,2.864782498E0,-9.012904054E-1,6.569582136E-1,3.074231164E0
5.484594958E0,2.738627651E0,-5.893505866E-1,8.442231886E-1,2.925769696E0
5.494621958E0,2.710852207E0,-4.705956101E-1,9.249213427E-1,2.902698642E0
5.504647958E0,2.607822513E0,-3.136120494E-1,1.001205288E0,2.810961189E0
5.514674958E0,2.211839713E0,2.529944032E-2,1.160242683E0,2.497806650E0
5.524700958E0,1.722449983E0,4.160045430E-1,1.318769324E0,2.208856322E0
5.534726958E0,1.422886015E0,6.050299685E-1,1.318506784E0,2.032025102E0
5.544753958E0,1.275029227E0,6.547299859E-1,1.140277219E0,1.831557539E0
5.554779958E0,1.178068358E0,5.257883558E-1,8.816178869E-1,1.562545535E0
5.564805958E0,1.313619681E0,2.214434123E-1,6.488086568E-1,1.481751168E0
5.574832958E0,1.623338508E0,-3.857152350E-2,3.832959495E-1,1.668421847E0
5.584858958E0,1.894982606E0,-1.837008778E-1,4.414574727E-2,1.904377572E0
5.594884958E0,1.909646253E0,-2.468372121E-1,-2.361715253E-1,1.939962476E0
5.604911958E0,1.581800473E0,-9.253189534E-2,-4.726514912E-1,1.653497602E0
5.614937958E0,1.148566816E0,4.805804618E-2,-8.460197456E-1,1.427327824E0
5.624963958E0,7.419262969E-1,2.477757633E-2,-1.189415026E0,1.402061576E0
5.634990958E0,2.057699507E-1,-9.487619027E-3,-1.458510907E0,1.472985185E0
5.645016958E0,-6.034677386E-1,7.465125605E-2,-1.682970167E0,1.789450951E0
5.655042958E0,-1.478916374E0,1.616948086E-1,-1.813391435E0,2.345576124E0
5.665069958E0,-2.215836285E0,2.210621738E-1,-1.767391682E0,2.842968921E0
5.675095958E0,-2.884424465E0,2.776474339E-1,-1.890275012E0,3.459787885E0
5.685121958E0,-3.536045194E0,2.326710165E-1,-2.078132164E0,4.108087719E0
5.695148958E0,-3.937704470E0,9.574442871E-2,-2.161069217E0,4.492761250E0
5.705174958E0,-4.215923762E0,-4.145295829E-2,-2.155417006E0,4.735140334E0
5.715201958E0,-4.291655145E0,-7.073142886E-2,-1.967013286E0,4.721487910E0
5.725227958E0,-4.183448326E0,-1.082557160E-1,-1.754671796E0,4.537822419E0
5.735253958E0,-3.916804183E0,-1.978189800E-1,-1.543322432E0,4.214538110E0
5.745280958E0,-3.500685326E0,-2.433981722E-1,-1.296196879E0,3.740877808E0
5.755306958E0,-3.053986117E0,-2.079318856E-1,-1.037250156E0,3.232020229E0
5.765332958E0,-2.623082576E0,-2.126240569E-1,-7.673271865E-1,2.741270181E0
5.775359958E0,-2.187054536E0,-2.467987666E-1,-5.251140256E-1,2.262711186E0
5.785385958E0,-1.744283486E0,-2.544545992E-1,-2.698905176E-1,1.783287109E0
5.795411958E0,-1.322168895E0,-1.697828235E-1,-8.109503388E-3,1.333050096E0
5.805438958E0,-1.041403141E0,2.642802604E-2,1.600309834E-1,1.053958661E0
5.815464958E0,-8.989684761E-1,3.160422984E-1,1.772466481E-1,9.692488997E-1
5.825490958E0,-8.205684239E-1,6.111421361E-1,1.148325911E-1,1.029569703E0
5.835517958E0,-7.564098501E-1,9.240368052E-1,-4.892774642E-2,1.195154301E0
5.845543958E0,-8.207941264E-1,1.209334444E0,-1.746095538E-1,1.471965112E0
5.855569958E0,-8.634782159E-1,1.394058950E0,-2.267412820E-1,1.655417347E0
5.865596958E0,-7.711500961E-1,1.514452243E0,-2.961234659E-1,1.725087584E0
5.875622958E0,-6.383434564E-1,1.551533092E0,-4.603939730E-1,1.739741335E0
5.885649958E0,-4.356573272E-1,1.413320263E0,-6.201517452E-1,1.603701861E0
5.895675958E0,-1.894246441E-1,1.165823119E0,-6.908719182E-1,1.368330826E0
5.905701958E0,5.618063271E-2,8.937305403E-1,-7.161462155E-1,1.146636797E0
5.915728958E0,4.900896424E-1,6.856675308E-1,-6.574920644E-1,1.068935749E0
5.925754958E0,1.111227082E0,4.979143133E-1,-5.407149817E-1,1.332335162E0
5.935780958E0,1.963768081E0,3.247182508E-1,-3.603177077E-1,2.022784187E0
5.945807958E0,2.689456075E0,1.796891031E-1,-1.954924460E-1,2.702532045E0
5.955833958E0,3.210779205E0,1.053332777E-1,-1.094711329E-1,3.214371188E0
5.965859958E0,3.391660482E0,1.254836599E-1,-9.484841600E-2,3.395306054E0
5.975886958E0,3.547003461E0,6.354125395E-2,-1.441224638E-1,3.550498884E0
5.985912958E0,3.986960830E0,-2.499614525E-1,-9.571453482E-2,3.995935267E0
5.995938958E0,4.472576768E0,-5.981722809E-1,8.426758692E-2,4.513186684E0
6.005965958E0,4.811941563E0,-8.685904366E-1,4.129870874E-1,4.907116188E0
6.015991958E0,4.877197074E0,-1.128281290E0,6.788054578E-1,5.051816190E0
6.026017958E0,4.722731178E0,-1.431467974E0,8.241228001E-1,5.003245820E0
6.036044958E0,4.290875126E0,-1.590930754E0,1.092896646E0,4.705007236E0
6.046070958E0,3.644902807E0,-1.358833861E0,1.389927453E0,4.130816416E0
6.056096958E0,2.892005380E0,-8.757849238E-1,1.379686640E0,3.321781085E0
6.066123958E0,2.171703256E0,-6.431345918E-1,1.135442595E0,2.533603564E0
6.076149958E0,1.549944842E0,-6.621790463E-1,8.959407878E-1,1.908800670E0
6.086176958E0,1.001266099E0,-7.818293776E-1,6.829433861E-1,1.442290763E0
6.096202958E0,6.523598170E-1,-1.033597839E0,4.262175822E-1,1.294433950E0
6.106228958E0,3.509124613E-1,-1.353683487E0,1.704323030E-1,1.408774541E0
6.116255958E0,1.120443463E-1,-1.541564028E0,-9.646473259E-2,1.548637799E0
6.126281958E0,-1.419078308E-1,-1.601287196E0,-2.431792670E-1,1.625851984E0
6.136307958E0,-3.506107450E-1,-1.522113850E0,-2.588310939E-1,1.583272560E0
6.146334958E0,-5.982602084E-1,-1.351346063E0,-2.074673975E-1,1.492345194E0
6.156360958E0,-9.297224915E-1,-1.143256960E0,-2.613085592E-1,1.496563581E0
6.166386958E0,-1.233030431E0,-1.019609837E0,-4.337973279E-1,1.657754019E0
6.176413958E0,-1.481593230E0,-1.035086832E0,-4.754289186E-1,1.868838117E0
6.186439958E0,-1.633391041E0,-1.073485205E0,-3.701755285E-1,1.989313123E0
6.196465958E0,-1.759378073E0,-9.432926365E-1,-9.743537039E-2,1.998676025E0
6.206492958E0,-1.909127020E0,-6.974694778E-1,1.174992138E-1,2.035936079E0
6.216518958E0,-2.116740013E0,-4.519044737E-1,2.247830495E-1,2.176082112E0
6.226544958E0,-2.264676908E0,-1.791998374E-1,2.587239437E-1,2.286440937E0
6.236571958E0,-2.425757174E0,9.814390674E-2,2.028896123E-1,2.436204895E0
6.246597958E0,-2.603890845E0,3.186157311E-1,3.362952992E-2,2.623527104E0
6.256623958E0,-2.823260835E0,3.954838859E-1,-1.109801531E-1,2.852985426E0
6.266650958E0,-2.974110228E0,3.597133979E-1,-2.007436842E-1,3.002502856E0
6.276676958E0,-3.084469991E0,3.030150674E-1,-2.164675780E-1,3.106868435E0
6.286703958E0,-3.162574174E0,2.127847092E-1,-1.280183548E-1,3.172308535E0
6.296729958E0,-3.188371505E0,1.268214297E-1,-7.501334488E-2,3.191774355E0
6.306755958E0,-3.159084556E0,7.101107195E-2,-2.051261723E-2,3.159949141E0
6.316782958E0,-3.068880730E0,6.577386707E-2,8.990737259E-2,3.070901898E0
6.326808958E0,-2.982281127E0,1.004173042E-1,2.606707741E-1,2.995335308E0
6.336834958E0,-2.807563400E0,1.241242553E-1,4.687899899E-1,2.849137260E0
6.346862083E0,-2.647195324E0,1.394336546E-1,6.179242484E-1,2.721932256E0
6.356888083E0,-2.476744895E0,2.038305755E-1,7.548825574E-1,2.597240816E0
6.366914083E0,-2.324146600E0,3.480101958E-1,8.833283436E-1,2.510585086E0
6.376941083E0,-2.078430226E0,5.015439724E-1,9.878308050E-1,2.355255455E0
6.386967083E0,-1.915679995E0,5.864817233E-1,1.048556625E0,2.261252230E0
6.396993083E0,-1.778013734E0,6.582280827E-1,1.018674429E0,2.152276618E0
6.407020083E0,-1.721254812E0,7.420979127E-1,8.046024553E-1,2.039806989E0
6.417046083E0,-1.645800587E0,7.846314365E-1,5.293520875E-1,1.898557267E0
6.427072083E0,-1.325223480E0,7.155832748E-1,4.032068883E-1,1.559119139E0
6.437099083E0,-7.309738773E-1,5.620754452E-1,4.299985380E-1,1.017423392E0
6.447125083E0,-1.172922224E-1,3.617882824E-1,6.250299311E-1,7.316492612E-1
6.457152083E0,4.116960222E-1,1.582148382E-1,7.881029284E-1,9.031233445E-1
6.467178083E0,1.096347088E0,-7.351952747E-2,8.874110158E-1,1.412402339E0
6.477204083E0,1.934241981E0,-2.529312533E-1,9.334986234E-1,2.162564667E0
6.487231083E0,2.674566725E0,-4.160272010E-1,1.168813970E0,2.948306615E0
6.497257083E0,3.075705600E0,-5.326149800E-1,1.351832551E0,3.401631212E0
6.507283083E0,2.974276873E0,-5.719511001E-1,1.322906229E0,3.305076682E0
6.517310083E0,2.619775391E0,-5.204562798E-1,1.278757997E0,2.961303742E0
6.527336083E0,2.323638477E0,-3.384276326E-1,1.223841532E0,2.647945832E0
6.537362083E0,2.377322933E0,-3.030170408E-1,9.073696093E-1,2.562577465E0
6.547389083E0,2.857821972E0,-5.985354660E-1,6.352887248E-1,2.988140374E0
6.557415083E0,3.219521377E0,-8.786358069E-1,5.428712887E-1,3.381128216E0
6.567441083E0,3.317546439E0,-7.954908854E-1,5.501836704E-1,3.455665232E0
6.577468083E0,3.477881185E0,-6.271015996E-1,4.978179073E-1,3.568856487E0
6.587494083E0,3.529581681E0,-5.955435920E-1,5.018022001E-1,3.614474300E0
6.597520083E0,3.231882391E0,-4.016547449E-1,6.490618412E-1,3.320793820E0
6.607547083E0,2.532406880E0,5.728868008E-2,9.321987873E-1,2.699140822E0
6.617573083E0,1.763908496E0,4.949311370E-1,1.167389588E0,2.172355510E0
6.627600083E0,1.172127002E0,7.072536238E-1,1.220787093E0,1.834232952E0
6.637626083E0,8.691997164E-1,7.063566609E-1,1.080726690E0,1.556411917E0
6.647652083E0,9.759306979E-1,5.025082514E-1,8.861480172E-1,1.410749297E0
6.657679083E0,1.299120925E0,1.926822741E-1,7.976590329E-1,1.536587638E0
6.667705083E0,1.587479289E0,-9.450854659E-3,8.529491347E-1,1.802138185E0
6.677731083E0,1.734413386E0,-6.845846996E-2,8.408490528E-1,1.928705132E0
6.687758083E0,1.679126793E0,-1.031377213E-1,4.381897563E-1,1.738422974E0
6.697784083E0,1.440824688E0,-8.467192188E-2,-6.027558401E-2,1.444568538E0
6.707810083E0,1.072683991E0,4.038730323E-2,-5.602383962E-1,1.210846455E0
6.717837083E0,6.287581158E-1,9.016172647E-2,-1.114344671E0,1.282665175E0
6.727863083E0,-2.199839473E-2,6.319012865E-2,-1.574237684E0,1.575658976E0
6.737889083E0,-8.164747882E-1,6.872057140E-2,-1.920101075E0,2.087616280E0
6.747916083E0,-1.663781945E0,1.791307671E-1,-2.112550630E0,2.695019175E0
6.757942083E0,-2.360260173E0,2.355730627E-1,-2.187097805E0,3.226409701E0
6.767968083E0,-2.914129490E0,2.778989372E-1,-2.088837831E0,3.596195488E0
6.777995083E0,-3.377604361E0,3.795672532E-1,-1.984000178E0,3.935548148E0
6.788021083E0,-3.602970670E0,4.574137203E-1,-1.862886216E0,4.081785150E0
6.798048083E0,-3.733651847E0,4.270280794E-1,-1.692419414E0,4.121503678E0
6.808074083E0,-3.731290156E0,3.283464481E-1,-1.441050391E0,4.013348209E0
6.818100083E0,-3.568486131E0,1.643826275E-1,-1.063491583E0,3.727214679E0
6.828127083E0,-3.373865066E0,1.950550742E-2,-7.173402169E-1,3.449336594E0
6.838153083E0,-3.207618200E0,-9.114705540E-2,-5.700545557E-1,3.259153955E0
6.848179083E0,-3.038395101E0,-2.643235298E-1,-5.688843817E-1,3.102473394E0
6.858206083E0,-2.892132264E0,-4.821988249E-1,-6.555506426E-1,3.004445271E0
6.868232083E0,-2.671044948E0,-6.588559274E-1,-6.942048311E-1,2.837338998E0
6.878258083E0,-2.353332977E0,-7.504500025E-1,-6.953159483E-1,2.566089549E0
6.888285083E0,-1.993769560E0,-6.784731167E-1,-7.231166813E-1,2.226733159E0
6.898311083E0,-1.751871418E0,-5.092814467E-1,-8.041098274E-1,1.993743632E0
6.908337083E0,-1.619854737E0,-3.344174659E-1,-8.914401859E-1,1.878943856E0
6.918364083E0,-1.401179981E0,-9.527789399E-2,-8.709837019E-1,1.652572487E0
6.928390083E0,-1.273114849E0,1.939710736E-1,-7.437608609E-1,1.487153796E0
6.938416083E0,-1.319592027E0,3.472771742E-1,-6.187392041E-1,1.498253235E0
6.948443083E0,-1.216852940E0,4.130992077E-1,-4.951083076E-1,1.377139887E0
6.958469083E0,-9.856154412E-1,5.821384116E-1,-4.505876076E-1,1.230183775E0
6.968496083E0,-8.580607706E-1,8.141934239E-1,-5.142142309E-1,1.289804440E0
6.978522083E0,-6.310174799E-1,9.130365846E-1,-6.121882761E-1,1.267514635E0
6.988548083E0,-2.015622944E-1,8.822644427E-1,-6.670085540E-1,1.124241218E0
6.998575083E0,3.447997820E-1,8.494535230E-1,-7.210754183E-1,1.166365267E0
7.008601083E0,9.265228951E-1,8.704675390E-1,-7.667629302E-1,1.484615709E0
7.018627083E0,1.389838137E0,8.022625458E-1,-8.409749141E-1,1.811770969E0
7.028654083E0,1.840756112E0,6.068726454E-1,-8.889887407E-1,2.132364522E0
7.038680083E0,2.368739220E0,4.242523330E-1,-8.024104804E-1,2.536686444E0
7.048706083E0,2.805474774E0,3.474205041E-1,-5.835497832E-1,2.886506550E0
7.058733083E0,3.066564648E0,3.328144518E-1,-4.330237412E-1,3.114818415E0
7.068759083E0,3.393921016E0,2.668436797E-1,-3.992367750E-1,3.427724524E0
7.078785083E0,3.730270987E0,4.569094710E-2,-4.151202978E-1,3.753576182E0
7.088812083E0,4.057220389E0,-3.453926166E-1,-2.875691356E-1,4.082037402E0
7.098838083E0,4.248585139E0,-6.855456895E-1,-1.800767004E-2,4.303576751E0
7.108864083E0,4.142185110E0,-6.752534205E-1,2.357749379E-1,4.203481234E0
7.118891083E0,3.818490853E0,-3.373348611E-1,2.939708135E-1,3.844617802E0
7.128917083E0,3.521386809E0,-2.252024411E-1,3.040400112E-1,3.541655196E0
7.138943083E0,3.296736199E0,-3.805147214E-1,4.064902461E-1,3.343425689E0
7.148970083E0,2.842352579E0,-3.934553406E-1,5.007304054E-1,2.912817575E0
7.158996083E0,2.272836698E0,-1.540208497E-1,6.335871850E-1,2.364517244E0
7.169023083E0,1.819399157E0,8.607832342E-3,6.079852974E-1,1.918315279E0
7.179049083E0,1.489504513E0,7.359554127E-2,4.264438695E-1,1.551094572E0
7.189075083E0,1.295455890E0,4.802683666E-3,2.883184563E-1,1.327161091E0
7.199102083E0,1.232676090E0,-2.722432910E-1,3.359231240E-1,1.306312022E0
7.209128083E0,1.303574165E0,-7.013814113E-1,4.685882610E-1,1.552680407E0
7.219154083E0,1.359101079E0,-1.076656735E0,6.043804890E-1,1.836197495E0
7.229181083E0,1.355517905E0,-1.285177362E0,6.387111001E-1,1.974097645E0
7.239207083E0,1.212905484E0,-1.286960471E0,5.869404374E-1,1.863305140E0
7.249233083E0,8.732986146E-1,-1.168322219E0,3.916394877E-1,1.510300886E0
7.259260083E0,3.870698887E-1,-1.034949131E0,1.168329236E-1,1.111122286E0
7.269286083E0,-3.524701595E-2,-1.012448899E0,-1.364906779E-1,1.022215647E0
7.279312083E0,-3.689136994E-1,-1.173987879E0,-2.299563736E-1,1.251888490E0
7.289339083E0,-7.784450823E-1,-1.262358603E0,-1.412384708E-1,1.489790017E0
7.299365083E0,-1.297334601E0,-1.188768032E0,-9.596859634E-2,1.762230539E0
7.309391083E0,-1.800549488E0,-1.030645653E0,-8.309902087E-2,2.076322318E0
7.319418083E0,-2.205628216E0,-8.485071512E-1,7.955136895E-4,2.363209861E0
7.329444083E0,-2.532939561E0,-5.855099161E-1,7.741304219E-2,2.600883977E0
7.339471083E0,-2.835738208E0,-3.690680659E-1,9.113236427E-2,2.861105998E0
7.349496958E0,-3.055449091E0,-2.138046829E-1,2.122290775E-2,3.062993960E0
7.359522958E0,-3.182125509E0,-1.130233895E-1,-8.403165177E-2,3.185240707E0
7.369549958E0,-3.240004758E0,-6.139437564E-2,-2.825802912E-1,3.252883601E0
7.379575958E0,-3.206615403E0,-3.608638376E-2,-4.598566139E-1,3.239622304E0
7.389601958E0,-3.164830030E0,1.610396281E-2,-6.505980510E-1,3.231050337E0
7.399628958E0,-3.229594375E0,6.573520236E-2,-8.372834207E-1,3.337011309E0
7.409654958E0,-3.245348529E0,9.100825712E-2,-8.857730645E-1,3.365288026E0
7.419680958E0,-3.099645270E0,9.489080831E-2,-7.992217013E-1,3.202430389E0
7.429707958E0,-2.982981039E0,6.332666114E-2,-6.416909873E-1,3.051877040E0
7.439733958E0,-2.887686042E0,7.024976447E-2,-3.882776311E-1,2.914519724E0
7.449759958E0,-2.802433053E0,1.751641622E-1,-1.641769516E-1,2.812697561E0
7.459786958E0,-2.730365535E0,2.299207056E-1,-3.867085308E-2,2.740301976E0
7.469812958E0,-2.659425361E0,2.137089347E-1,1.418753788E-2,2.668035990E0
7.479839958E0,-2.520193800E0,1.946245730E-1,3.047159493E-2,2.527881333E0
7.489865958E0,-2.348639417E0,1.952741987E-1,9.944710493E-2,2.358840573E0
7.499891958E0,-2.288192071E0,9.926262528E-2,1.640845656E-1,2.296214225E0
7.509918958E0,-2.066007816E0,-5.387697592E-3,2.743874650E-1,2.084155897E0
7.519944958E0,-1.648092111E0,-2.113315299E-2,4.252527916E-1,1.702202735E0
7.529970958E0,-1.275685869E0,1.562536821E-2,5.996918991E-1,1.409698182E0
7.539997958E0,-7.035305554E-1,-1.548934735E-2,7.909784429E-1,1.058698285E0
7.550023958E0,2.337716818E-2,-1.120063394E-2,9.708325106E-1,9.711785159E-1
7.560049958E0,5.818757254E-1,6.029210240E-3,9.852688475E-1,1.144277245E0
7.570076958E0,1.127526780E0,-3.160829365E-2,9.076537840E-1,1.447809075E0
7.580102958E0,1.675671088E0,-1.684430802E-1,7.429162306E-1,1.840698561E0
7.590128958E0,2.275763229E0,-3.843595581E-1,6.738154440E-1,2.404341448E0
7.600155958E0,2.904125488E0,-5.627882208E-1,8.279616433E-1,3.071839175E0
7.610181958E0,3.499194871E0,-5.468576279E-1,1.083756278E0,3.703774518E0
7.620207958E0,3.596508327E0,-3.678655860E-1,1.380077818E0,3.869730226E0
7.630234958E0,3.101401189E0,-1.940193862E-2,1.404603965E0,3.404699409E0
7.640260958E0,2.550032727E0,1.825969966E-1,1.207723536E0,2.827473202E0
7.650287958E0,2.368469664E0,4.974518716E-2,8.719501005E-1,2.524365289E0
7.660313958E0,2.675448486E0,-3.600936131E-1,5.172995143E-1,2.748688923E0
7.670339958E0,2.955704362E0,-5.615581128E-1,5.493153588E-1,3.058313776E0
7.680366958E0,2.807466921E0,-2.769748579E-1,6.346244811E-1,2.891597104E0
7.690392958E0,2.544666152E0,1.073833846E-1,5.043678121E-1,2.596390554E0
7.700418958E0,2.431660523E0,2.777415740E-1,1.567743766E-1,2.452486797E0
7.710445958E0,2.162720763E0,4.487755555E-1,-1.756322318E-1,2.215763363E0
7.720471958E0,1.715387131E0,7.174312873E-1,-2.634357762E-1,1.877940113E0
7.730497958E0,1.412986679E0,9.068822439E-1,-1.683460164E-1,1.687396557E0
7.740524958E0,1.339065594E0,9.280401014E-1,2.022668839E-2,1.629344719E0
7.750550958E0,1.279793538E0,8.321678379E-1,2.882300171E-1,1.553528678E0
7.760576958E0,1.282924722E0,5.859743312E-1,5.003940444E-1,1.496548015E0
7.770603958E0,1.504656987E0,1.881872271E-1,6.582409465E-1,1.653084458E0
7.780629958E0,1.887259018E0,-2.022106044E-1,7.553004871E-1,2.042820246E0
7.790655958E0,2.119096441E0,-3.377709903E-1,7.153811073E-1,2.261952497E0
7.800682958E0,1.947112287E0,-2.430852731E-1,3.098468810E-1,1.986540158E0
7.810708958E0,1.434123779E0,-1.459536655E-1,-2.318032166E-1,1.460050073E0
7.820734958E0,8.819811451E-1,-6.683192074E-2,-5.286824352E-1,1.030467061E0
7.830761958E0,3.245286548E-1,-8.608438991E-2,-7.372492553E-1,8.101023605E-1
7.840787958E0,-2.644748265E-1,-1.259434703E-1,-9.061699069E-1,9.523405859E-1
7.850814958E0,-9.887805390E-1,-8.112865537E-3,-1.062753080E0,1.451618711E0
7.860840958E0,-1.685430676E0,1.628315073E-1,-1.237780125E0,2.097448521E0
7.870866958E0,-2.256975541E0,3.298564915E-1,-1.325557356E0,2.638152043E0
7.880893958E0,-2.789528248E0,4.877718061E-1,-1.429006296E0,3.171978590E0
7.890919958E0,-3.299042341E0,6.397519045E-1,-1.535578818E0,3.694721257E0
7.900945958E0,-3.558304374E0,7.065829481E-1,-1.516570397E0,3.932019233E0
7.910972958E0,-3.587882515E0,6.492156230E-1,-1.443727246E0,3.921572417E0
7.920998958E0,-3.545569139E0,5.161472473E-1,-1.305653727E0,3.813423678E0
7.931024958E0,-3.480441681E0,3.387422859E-1,-1.246720225E0,3.712483259E0
7.941051958E0,-3.292929077E0,1.958519766E-1,-1.131496747E0,3.487409467E0
7.951077958E0,-3.028905070E0,1.287471371E-1,-9.758326109E-1,3.184821979E0
7.961104958E0,-2.791592900E0,6.043272793E-2,-9.095162684E-1,2.936641428E0
7.971130958E0,-2.555677629E0,-4.256444089E-2,-8.605654255E-1,2.697011814E0
7.981156958E0,-2.259091648E0,-9.982827030E-2,-8.394160464E-1,2.412069662E0
7.991183958E0,-1.949611972E0,-6.139225602E-2,-8.020204711E-1,2.109026478E0
8.001209958E0,-1.653738182E0,3.683628917E-2,-7.402499002E-1,1.812229787E0
8.011235958E0,-1.464600636E0,2.050683580E-1,-6.733263244E-1,1.624954275E0
8.021262958E0,-1.397955242E0,3.273540294E-1,-5.680704492E-1,1.544067212E0
8.031288958E0,-1.372754912E0,3.336769892E-1,-4.895290406E-1,1.495137138E0
8.041314958E0,-1.307418709E0,3.516581275E-1,-4.255416441E-1,1.419187376E0
8.051341958E0,-1.276707378E0,4.200385371E-1,-3.110864908E-1,1.379561128E0
8.061367958E0,-1.285401603E0,4.911038420E-1,-2.627025354E-1,1.400875757E0
8.071393958E0,-1.227003706E0,5.412000813E-1,-3.233815773E-1,1.379496744E0
8.081420958E0,-1.078893734E0,6.323469906E-1,-4.941902947E-1,1.344655514E0
8.091446958E0,-9.022902793E-1,6.344514035E-1,-7.236262661E-1,1.319201010E0
8.101472958E0,-5.689498705E-1,5.377498586E-1,-7.983010572E-1,1.118107081E0
8.111499958E0,-1.790733182E-1,4.316894066E-1,-7.620465660E-1,8.939451694E-1
8.121525958E0,3.499640429E-1,3.580523501E-1,-6.641279233E-1,8.317104155E-1
8.131552958E0,9.000630748E-1,2.827530033E-1,-5.067562535E-1,1.070917691E0
8.141578958E0,1.383275222E0,1.000536805E-1,-3.440783818E-1,1.428933523E0
8.151604958E0,2.017916806E0,-9.729225978E-2,-2.034024131E-1,2.030474467E0
8.161631958E0,2.663649974E0,-2.160499406E-1,-3.753853977E-2,2.672661202E0
8.171657958E0,3.140123205E0,-2.436944067E-1,5.329795539E-2,3.150016092E0
8.181683958E0,3.446835394E0,-1.621798351E-1,3.045522273E-2,3.450783107E0
8.191710958E0,3.674792020E0,-1.530989631E-1,-1.344076073E-1,3.680434904E0
8.201736958E0,4.011539601E0,-3.391807540E-1,-2.675007606E-1,4.034730501E0
8.211762958E0,4.200226327E0,-5.617664199E-1,-2.437914705E-1,4.244633905E0
8.221789958E0,4.131350804E0,-5.503824757E-1,-6.159603149E-2,4.168305940E0
8.231815958E0,3.915465755E0,-3.571730751E-1,5.060180426E-2,3.932048477E0
8.241841958E0,3.676140972E0,-3.082497872E-1,1.462907575E-1,3.691941409E0
8.251868958E0,3.435681245E0,-5.374341090E-1,3.186475253E-1,3.492030539E0
8.261894958E0,3.176647253E0,-6.225220603E-1,6.331806573E-1,3.298414654E0
8.271921958E0,2.846830961E0,-3.808630693E-1,8.623631519E-1,2.998862018E0
8.281947958E0,2.522962457E0,-4.129932269E-2,9.772398895E-1,2.705927382E0
8.291973958E0,2.110821462E0,1.454017615E-1,8.899548469E-1,2.295371113E0
8.302000958E0,1.660280047E0,1.854046103E-1,6.601124941E-1,1.796288732E0
8.312026958E0,1.393175728E0,4.646994241E-2,5.318087952E-1,1.491951292E0
8.322052958E0,1.272762262E0,-1.688373287E-1,5.631406617E-1,1.401983318E0
8.332079958E0,1.143497865E0,-3.491356386E-1,6.132153395E-1,1.343694948E0
8.342105958E0,1.003881558E0,-4.421676171E-1,5.777668869E-1,1.239800371E0
8.352131833E0,8.306507778E-1,-4.627255502E-1,4.284368929E-1,1.042906430E0
8.362158833E0,5.321299535E-1,-3.906931159E-1,1.990129083E-1,6.894994822E-1
8.372184833E0,7.940460384E-2,-2.462242777E-1,-1.260791257E-2,2.590182339E-1
8.382210833E0,-3.573929304E-1,-1.732912260E-1,-2.702235165E-1,4.803959873E-1
8.392237833E0,-7.324602395E-1,-2.418864477E-1,-5.046930635E-1,9.218037451E-1
8.402263833E0,-1.087742325E0,-4.370404860E-1,-6.336276770E-1,1.332543352E0
8.412289833E0,-1.518874492E0,-4.647453247E-1,-5.678330523E-1,1.686832035E0
8.422316833E0,-1.930575777E0,-3.904989883E-1,-4.540456510E-1,2.021328707E0
8.432342833E0,-2.255419012E0,-3.106450260E-1,-3.978305197E-1,2.311208423E0
8.442369833E0,-2.552489727E0,-1.732472987E-1,-3.439647996E-1,2.581381455E0
8.452395833E0,-2.858848743E0,-3.641930960E-2,-2.888235095E-1,2.873632113E0
8.462421833E0,-3.030080945E0,1.866643198E-2,-2.697707959E-1,3.042123478E0
8.472448833E0,-3.178734124E0,2.429349996E-2,-2.982338722E-1,3.192786283E0
8.482474833E0,-3.259971246E0,1.365580671E-2,-3.664457358E-1,3.280530670E0
8.492500833E0,-3.256735396E0,1.837407120E-2,-3.983026823E-1,3.281052891E0
8.502527833E0,-3.222705186E0,1.890017442E-2,-4.645333631E-1,3.256067748E0
8.512553833E0,-3.152136894E0,3.563446708E-2,-5.433487138E-1,3.198822384E0
8.522579833E0,-3.019144898E0,1.708044782E-2,-5.961218816E-1,3.077480943E0
8.532606833E0,-2.821881477E0,5.426947027E-4,-5.762480727E-1,2.880117568E0
8.542632833E0,-2.663484498E0,5.112249881E-2,-4.764539355E-1,2.706246761E0
8.552658833E0,-2.563127566E0,6.184183381E-2,-3.607764217E-1,2.589132472E0
8.562685833E0,-2.373347411E0,2.331197172E-2,-2.079702580E-1,2.382555983E0
8.572711833E0,-2.083455908E0,8.676537126E-4,-9.117417186E-2,2.085450072E0
8.582737833E0,-1.820075095E0,5.552808344E-2,5.768804491E-2,1.821835512E0
8.592764833E0,-1.725650749E0,9.267931826E-2,1.301413326E-1,1.733031081E0
8.602790833E0,-1.671154699E0,3.175988272E-2,1.438894522E-1,1.677638487E0
8.612817833E0,-1.577330861E0,-2.347160071E-2,2.417162937E-1,1.595916767E0
8.622843833E0,-1.447488760E0,2.375826046E-2,3.636845344E-1,1.492666944E0
8.632869833E0,-1.269230543E0,5.804523669E-2,5.170537850E-1,1.371736140E0
8.642896833E0,-1.037939250E0,-2.712508723E-2,5.980210572E-1,1.198199834E0
8.652922833E0,-6.386410797E-1,-2.292996582E-1,6.408219449E-1,9.333239132E-1
8.662948833E0,-7.583663285E-2,-3.665752517E-1,7.577055931E-1,8.451309815E-1
8.672975833E0,4.315145749E-1,-4.292579151E-1,9.034958290E-1,1.089390609E0
8.683001833E0,9.281951988E-1,-5.978150160E-1,8.864750227E-1,1.415897979E0
8.693027833E0,1.448484541E0,-8.806434484E-1,7.042158490E-1,1.835636214E0
8.703054833E0,1.924067241E0,-1.148316190E0,6.466159509E-1,2.332118567E0
8.713080833E0,2.416965301E0,-1.357289319E0,8.876751637E-1,2.910656757E0
8.723106833E0,2.767402384E0,-1.425832720E0,1.174512666E0,3.327310461E0
8.733133833E0,2.670270191E0,-1.266433089E0,1.398976750E0,3.269760177E0
8.743159833E0,2.290649071E0,-9.731937625E-1,1.335981188E0,2.824716800E0
8.753186833E0,2.087934875E0,-7.860750409E-1,1.028729740E0,2.456760242E0
8.763212833E0,2.289592479E0,-9.224385419E-1,6.202461778E-1,2.545158522E0
8.773238833E0,2.648623799E0,-1.235070525E0,3.246483766E-1,2.940408781E0
8.783265833E0,2.737994397E0,-1.205543767E0,3.477939950E-1,3.011795105E0
8.793291833E0,2.501306709E0,-7.392020792E-1,3.558305544E-1,2.632407710E0
8.803317833E0,2.243074955E0,-3.550462966E-1,2.642976558E-1,2.286328143E0
8.813344833E0,2.055512649E0,-1.078513811E-1,1.306351300E-1,2.062481444E0
8.823370833E0,1.826766649E0,1.794608425E-1,1.245269823E-1,1.839779757E0
8.833396833E0,1.516327445E0,5.212609298E-1,2.334943776E-1,1.620333762E0
8.843423833E0,1.213249885E0,7.027767031E-1,3.497612907E-1,1.445061708E0
8.853449833E0,9.890875179E-1,5.948518664E-1,4.464935334E-1,1.237537610E0
8.863475833E0,8.654077971E-1,3.344819315E-1,5.608504535E-1,1.084141157E0
8.873502833E0,9.122837555E-1,1.017035455E-2,6.300649685E-1,1.108759194E0
8.883528833E0,1.221690341E0,-2.909820092E-1,5.788033059E-1,1.382827208E0
8.893555833E0,1.435982609E0,-3.345673008E-1,6.854866326E-1,1.625999156E0
8.903581833E0,1.399636901E0,-1.013824602E-1,7.393334953E-1,1.586151278E0
8.913607833E0,1.270437409E0,1.770526667E-1,4.795164147E-1,1.369414053E0
8.923634833E0,1.038296515E0,2.647405824E-1,9.830105066E-2,1.076015951E0
8.933660833E0,6.714006901E-1,2.388180482E-1,-2.138907100E-1,7.440175956E-1
8.943686833E0,2.045461285E-1,2.621785518E-1,-4.402703418E-1,5.517378776E-1
8.953713833E0,-4.228174263E-1,3.832202281E-1,-6.967933935E-1,9.006405234E-1
8.963739833E0,-1.093246894E0,5.114044245E-1,-9.234253326E-1,1.519683389E0
8.973765833E0,-1.710569025E0,6.026501517E-1,-1.056921067E0,2.099122611E0
8.983792833E0,-2.308634521E0,7.158031301E-1,-1.263805497E0,2.727521184E0
8.993818833E0,-2.776675483E0,8.052356357E-1,-1.346742111E0,3.189364432E0
9.003844833E0,-3.238602596E0,8.253130008E-1,-1.443541889E0,3.640535882E0
9.013871833E0,-3.481367880E0,7.067919130E-1,-1.576625979E0,3.886544301E0
9.023897833E0,-3.550569677E0,5.316614453E-1,-1.577212747E0,3.921327451E0
9.033923833E0,-3.428843511E0,3.553633618E-1,-1.431809451E0,3.732737501E0
9.043950833E0,-3.189856698E0,2.654242681E-1,-1.150106388E0,3.401232203E0
9.053976833E0,-3.026228800E0,2.469539371E-1,-9.041602188E-1,3.168051877E0
9.064003833E0,-2.817553952E0,2.179384451E-1,-8.603856236E-1,2.954043138E0
9.074029833E0,-2.481103410E0,1.883897600E-1,-7.972640535E-1,2.612851852E0
9.084055833E0,-2.114050879E0,2.289699483E-1,-6.318881303E-1,2.218314893E0
9.094082833E0,-1.806495522E0,3.053051294E-1,-4.657478298E-1,1.890385763E0
9.104108833E0,-1.527758752E0,3.997967921E-1,-3.883089137E-1,1.626243552E0
9.114134833E0,-1.243734344E0,5.525922116E-1,-3.714269789E-1,1.410741391E0
9.124161833E0,-1.065600089E0,6.979023179E-1,-3.113770974E-1,1.311307322E0
9.134187833E0,-1.035982187E0,8.450503504E-1,-2.828763065E-1,1.366524128E0
9.144213833E0,-1.079366773E0,9.379976904E-1,-3.393650874E-1,1.469707781E0
9.154240833E0,-1.167900635E0,9.626075247E-1,-4.475757068E-1,1.578267770E0
9.164266833E0,-1.187667148E0,9.848318412E-1,-5.253496684E-1,1.629858670E0
9.174292833E0,-1.126088365E0,9.850020683E-1,-5.301337141E-1,1.587244731E0
9.184319833E0,-1.052384212E0,8.935595823E-1,-5.438077202E-1,1.483808644E0
9.194345833E0,-8.653586805E-1,7.167800537E-1,-4.541216648E-1,1.211959479E0
9.204372833E0,-5.219616455E-1,5.085050096E-1,-2.614939159E-1,7.742095144E-1
9.214398833E0,-7.236338675E-2,3.902612259E-1,-7.628116742E-2,4.041770660E-1
9.224424833E0,3.126997375E-1,3.418894035E-1,4.861755162E-2,4.658681750E-1
9.234451833E0,7.573003811E-1,3.022248162E-1,6.420681328E-3,8.154047656E-1
9.244477833E0,1.385561484E0,2.646750205E-1,-7.550597280E-2,1.412633938E0
9.254503833E0,2.069220276E0,2.721575562E-1,-6.792900458E-2,2.088146699E0
9.264530833E0,2.710574464E0,1.958021291E-1,-8.219869584E-2,2.718880105E0
9.274556833E0,3.249155651E0,1.712231389E-1,-1.115274525E-1,3.255574938E0
9.284582833E0,3.544303801E0,3.173271509E-1,-7.372900397E-2,3.559244572E0
9.294609833E0,3.749379103E0,4.452873259E-1,-1.446165535E-1,3.778496845E0
9.304635833E0,4.071694586E0,2.822211260E-1,-3.053275681E-1,4.092868248E0
9.314661833E0,4.273743954E0,-4.930693835E-2,-3.861816967E-1,4.291439719E0
9.324688833E0,4.054652876E0,-1.295902325E-1,-2.545649654E-1,4.064702559E0
9.334714833E0,3.532451495E0,7.977663293E-2,-1.794539720E-1,3.537906387E0
9.344741833E0,2.941774541E0,2.549063697E-1,-1.350076778E-1,2.955882572E0
9.354768125E0,2.540199464E0,1.650633164E-1,-1.126065561E-1,2.548046203E0
9.364794125E0,2.168590198E0,-5.051117241E-2,-1.100165319E-1,2.171966497E0
9.374821125E0,1.792159903E0,-1.123844350E-1,1.059473084E-1,1.798802994E0
9.384847125E0,1.447185289E0,-3.624469712E-2,3.779634351E-1,1.496166868E0
9.394873125E0,1.054042482E0,1.344786510E-2,4.369694424E-1,1.141108537E0
9.404900125E0,8.369020361E-1,-9.246669888E-2,3.139995736E-1,8.986383258E-1
9.414926125E0,7.222094858E-1,-3.761760143E-1,1.868299422E-1,8.354641598E-1
9.424952125E0,7.666307831E-1,-7.331155662E-1,2.481838989E-1,1.089392693E0
9.434979125E0,9.385219663E-1,-1.059616925E0,3.036143339E-1,1.447685454E0
9.445005125E0,1.132511532E0,-1.138548782E0,3.666917574E-1,1.647221461E0
9.455031125E0,1.357555659E0,-9.888539216E-1,3.206449342E-1,1.709854561E0
9.465058125E0,1.482599536E0,-7.806429045E-1,2.225923902E-1,1.690281663E0
9.475084125E0,1.309083996E0,-5.857242166E-1,1.725788158E-1,1.444492026E0
9.485110125E0,9.772562617E-1,-4.563017991E-1,-2.316666842E-2,1.078785348E0
9.495137125E0,6.711884362E-1,-5.086768446E-1,-1.794905171E-1,8.610823972E-1
9.505163125E0,2.535422873E-1,-6.085214140E-1,-1.824954012E-1,6.840223492E-1
9.515190125E0,-3.379573703E-1,-5.712294075E-1,-8.269600153E-2,6.688474032E-1
9.525216125E0,-1.028316488E0,-4.826940840E-1,7.927245677E-2,1.138732848E0
9.535242125E0,-1.755157553E0,-3.433591012E-1,2.223827675E-1,1.802200767E0
9.545269125E0,-2.332600504E0,-1.486823783E-1,2.575691186E-1,2.351483237E0
9.555295125E0,-2.755488682E0,4.164379679E-2,1.542428246E-1,2.760116470E0
9.565321125E0,-3.149181127E0,1.197452755E-1,-8.249602675E-2,3.152536486E0
9.575348125E0,-3.477881770E0,1.218741737E-1,-1.655834994E-1,3.483953619E0
9.585374125E0,-3.734533022E0,9.720809642E-2,-2.329409386E-1,3.743053271E0
9.595400125E0,-3.928558840E0,-5.556404382E-2,-2.987155366E-1,3.940290966E0
9.605427125E0,-3.986563804E0,-2.499058674E-1,-3.589589609E-1,4.010485687E0
9.615453125E0,-3.950971802E0,-3.841933144E-1,-4.051507951E-1,3.990229298E0
9.625480125E0,-3.770462993E0,-4.500341321E-1,-4.279935278E-1,3.821269470E0
9.635506125E0,-3.493977985E0,-5.367488884E-1,-4.360593233E-1,3.561759294E0
9.645532125E0,-3.185119284E0,-5.829647693E-1,-4.118591595E-1,3.264117146E0
9.655559125E0,-2.763221040E0,-4.965123703E-1,-2.056518370E-1,2.814996932E0
9.665585125E0,-2.419065036E0,-2.627415656E-1,6.018948376E-2,2.434036062E0
9.675611125E0,-2.168755674E0,-3.128348082E-2,2.068657190E-1,2.178823824E0
9.685638125E0,-1.936047016E0,7.857371449E-2,2.684351456E-1,1.956146545E0
9.695664125E0,-1.754550027E0,5.620928407E-2,3.401886678E-1,1.788108948E0
9.705690125E0,-1.693461242E0,-4.809597999E-2,4.439837623E-1,1.751355413E0
9.715717125E0,-1.584334656E0,-1.486050489E-1,5.776322548E-1,1.692884752E0
9.725743125E0,-1.492298897E0,-2.558971073E-1,7.625295460E-1,1.695255331E0
9.735769125E0,-1.371251008E0,-3.060567158E-1,9.162148386E-1,1.677334096E0
9.745796125E0,-1.161890282E0,-3.721167310E-1,8.590292157E-1,1.492109608E0
9.755822125E0,-8.072619152E-1,-4.514823778E-1,6.762679124E-1,1.145795107E0
9.765849125E0,-4.315853262E-1,-5.075395612E-1,5.017745720E-1,8.340503708E-1
9.775875125E0,-8.962670624E-2,-6.172583967E-1,3.438513637E-1,7.122321497E-1
9.785901125E0,3.576911384E-1,-7.808153974E-1,3.146538770E-1,9.146708138E-1
9.795928125E0,8.861601502E-1,-9.156121369E-1,4.661429554E-1,1.356803100E0
9.805954125E0,1.327526114E0,-1.066669691E0,5.765991980E-1,1.797936720E0
9.815980125E0,1.743754313E0,-1.216669556E0,6.899882577E-1,2.235407728E0
9.826007125E0,1.983118272E0,-1.249593547E0,8.014294638E-1,2.477202313E0
9.836033125E0,1.941038200E0,-1.111623596E0,8.524733175E-1,2.393751672E0
9.846059125E0,1.790262482E0,-8.910452065E-1,7.074277246E-1,2.121191952E0
9.856086125E0,1.851849450E0,-7.523722015E-1,3.802619755E-1,2.034701326E0
9.866112125E0,2.241479250E0,-9.392242169E-1,3.010497451E-2,2.430489182E0
9.876138125E0,2.750544861E0,-1.248903868E0,-1.111817358E-1,3.022849530E0
9.886165125E0,2.988453448E0,-1.280211761E0,-5.084738731E-2,3.251519894E0
9.896191125E0,2.862134294E0,-9.834254397E-1,2.337702200E-2,3.026464075E0
9.906217125E0,2.750332022E0,-7.442860139E-1,7.747429177E-2,2.850314047E0
9.916244125E0,2.734653883E0,-6.713496000E-1,1.454820876E-1,2.819611176E0
9.926270125E0,2.604042288E0,-4.769185699E-1,2.678420918E-1,2.660869585E0
9.936297125E0,2.268060107E0,-6.587860532E-2,4.911683075E-1,2.321569070E0
9.946323125E0,1.867282591E0,4.043763314E-1,6.101318103E-1,2.005623424E0
9.956349125E0,1.571459087E0,5.725086321E-1,5.412498558E-1,1.757896812E0
9.966376125E0,1.508116200E0,4.118058036E-1,4.323045337E-1,1.622000525E0
9.976402125E0,1.712164730E0,1.031149171E-1,4.674609178E-1,1.777824643E0
9.986428125E0,2.150058033E0,-2.277437872E-1,5.086066049E-1,2.221102757E0
9.996455125E0,2.609794194E0,-3.346888498E-1,3.995376143E-1,2.661329117E0
1.000648113E1,2.696156400E0,-1.799159751E-1,9.192495435E-2,2.703715830E0
1.001650713E1,2.299814581E0,-3.630974740E-3,-4.669270670E-1,2.346738413E0
1.002653413E1,1.678019915E0,2.505897358E-3,-9.856601724E-1,1.946094317E0
1.003656013E1,1.009258658E0,-3.253383480E-2,-1.291741447E0,1.639590636E0
1.004658613E1,3.469176435E-1,-4.817309014E-2,-1.432123154E0,1.474330094E0
1.005661313E1,-3.775348341E-1,6.985376179E-2,-1.515709394E0,1.563581487E0
1.006663913E1,-1.220109839E0,2.706806226E-1,-1.647828401E0,2.068157262E0
1.007666612E1,-2.066436417E0,3.554189104E-1,-1.793825190E0,2.759400457E0
1.008669212E1,-2.710431792E0,4.605739941E-1,-1.807111526E0,3.290018385E0
1.009671812E1,-3.272996503E0,6.392230238E-1,-1.910064329E0,3.843105245E0
1.010674513E1,-3.627684512E0,7.449431679E-1,-2.021550851E0,4.219206452E0
1.011677113E1,-3.776875634E0,6.878458379E-1,-1.990833819E0,4.324504682E0
1.012679712E1,-3.664424906E0,5.961960682E-1,-1.794455812E0,4.123533837E0
1.013682413E1,-3.454628563E0,5.086164721E-1,-1.564719294E0,3.826420742E0
1.014685013E1,-3.256505601E0,4.336163566E-1,-1.296038273E0,3.531652174E0
1.015687613E1,-2.942877910E0,4.078795445E-1,-1.121107707E0,3.175496592E0
1.016690313E1,-2.570565224E0,4.061506690E-1,-1.210141506E0,2.870053380E0
1.017692913E1,-2.207376534E0,4.216246309E-1,-1.338834191E0,2.615866105E0
1.018695513E1,-1.976942443E0,4.453464559E-1,-1.197366509E0,2.353788742E0
1.019698213E1,-1.584105445E0,5.857252764E-1,-9.451465693E-1,1.935398201E0
1.020700813E1,-1.224475370E0,7.959455064E-1,-9.070757867E-1,1.719202043E0
1.021703513E1,-1.062943114E0,8.682532715E-1,-8.499372339E-1,1.614343554E0
1.022706113E1,-1.091565819E0,9.022889636E-1,-7.026495261E-1,1.580935694E0
1.023708713E1,-1.164769451E0,9.787319528E-1,-5.921045521E-1,1.632541549E0
1.024711413E1,-1.151902653E0,1.107335468E0,-4.895255323E-1,1.671139374E0
1.025714013E1,-1.099738473E0,1.284303496E0,-3.260179406E-1,1.721960474E0
1.026716613E1,-1.042335187E0,1.472474789E0,-1.822536188E-1,1.813245992E0
1.027719313E1,-1.028043423E0,1.570001376E0,-1.294339657E-1,1.881098283E0
1.028721913E1,-9.973192281E-1,1.539165938E0,-1.109569104E-1,1.837386422E0
1.029724513E1,-8.201673049E-1,1.404113822E0,-1.278566793E-1,1.631121505E0
1.030727213E1,-4.587707859E-1,1.212567954E0,-2.504347846E-1,1.320420107E0
1.031729813E1,-2.002729833E-2,9.804006019E-1,-3.639478053E-1,1.045965792E0
1.032732413E1,5.088089186E-1,7.676098993E-1,-5.286684018E-1,1.061885941E0
1.033735113E1,1.099029790E0,5.692803843E-1,-6.806328589E-1,1.412518221E0
1.034737713E1,1.722482142E0,3.545804562E-1,-7.321336725E-1,1.904912530E0
1.035740425E1,2.391702406E0,1.265323580E-1,-6.759042156E-1,2.488593447E0
1.036743025E1,3.010689824E0,6.685048565E-3,-4.468763798E-1,3.043681390E0
1.037745625E1,3.480047579E0,-8.460409418E-3,-2.663330716E-1,3.490234381E0
1.038748325E1,3.706985035E0,-1.190533306E-2,-2.925464317E-1,3.718529710E0
1.039750925E1,3.916512406E0,-1.826586847E-1,-4.411800224E-1,3.945513077E0
1.040753525E1,4.023347468E0,-5.573249479E-1,-5.099690062E-1,4.093654154E0
1.041756225E1,4.119637077E0,-1.018240858E0,-4.432397041E-1,4.266694918E0
1.042758825E1,4.155696856E0,-1.256065537E0,-2.461169082E-1,4.348343423E0
1.043761425E1,4.337075146E0,-1.317012674E0,-6.505962968E-2,4.533097833E0
1.044764125E1,4.454624646E0,-1.440285575E0,-1.339070857E-2,4.681696550E0
1.045766725E1,4.177416338E0,-1.477212934E0,1.083926140E-1,4.432235810E0
1.046769325E1,3.496808038E0,-9.972722311E-1,2.921713328E-1,3.647955927E0
1.047772025E1,2.734415901E0,-2.274600510E-1,3.303279233E-1,2.763672364E0
1.048774625E1,2.113329917E0,2.949174046E-1,1.723460966E-1,2.140757527E0
1.049777325E1,1.595171301E0,4.023337528E-1,6.433691382E-3,1.645139909E0
1.050779925E1,1.183327929E0,1.617255796E-1,-1.089885914E-1,1.199290900E0
1.051782525E1,8.711807531E-1,-3.180357969E-1,-1.269526997E-1,9.360660557E-1
1.052785225E1,6.856006533E-1,-8.293793008E-1,-7.471396744E-2,1.078656784E0
1.053787825E1,4.376874804E-1,-1.198582291E0,-8.010290757E-2,1.278509411E0
1.054790425E1,1.980849552E-1,-1.481422930E0,-1.535858899E-1,1.502478010E0
1.055793125E1,-2.900043547E-2,-1.557817241E0,-1.981434274E-1,1.570635667E0
1.056795725E1,-3.485659736E-1,-1.326847545E0,-2.124544877E-1,1.388221724E0
1.057798325E1,-7.191297573E-1,-9.679918601E-1,-2.482616669E-1,1.231174116E0
1.058801025E1,-9.906411231E-1,-7.419843306E-1,-2.659234741E-1,1.265948607E0
1.059803625E1,-1.251027576E0,-7.490727639E-1,-2.228914753E-1,1.475079866E0
1.060806225E1,-1.585298277E0,-8.286995620E-1,-1.066093594E-1,1.792004226E0
1.061808925E1,-1.876653923E0,-8.179175156E-1,1.038062042E-1,2.049779193E0
1.062811525E1,-2.073004594E0,-6.978168755E-1,2.835946369E-1,2.205611561E0
1.063814125E1,-2.321207204E0,-5.700616454E-1,3.353559440E-1,2.413594161E0
1.064816825E1,-2.523477012E0,-4.637495804E-1,2.407254830E-1,2.577003815E0
1.065819425E1,-2.611532571E0,-4.218249346E-1,1.958764619E-1,2.652622520E0
1.066822125E1,-2.632010105E0,-3.220635783E-1,1.877931248E-1,2.658282980E0
1.067824725E1,-2.628536859E0,-2.370963721E-1,1.540424113E-1,2.643700016E0
1.068827325E1,-2.647723328E0,-1.558403936E-1,8.376180276E-2,2.653627911E0
1.069830025E1,-2.650375625E0,-1.186065668E-1,3.457560942E-2,2.653253464E0
1.070832625E1,-2.624955440E0,-9.048632003E-2,1.115020171E-1,2.628880281E0
1.071835225E1,-2.572586607E0,-7.312133208E-2,1.950958586E-1,2.581009681E0
1.072837925E1,-2.631970344E0,-1.358679860E-1,1.555999634E-1,2.640064270E0
1.073840525E1,-2.548472689E0,-2.225550411E-1,2.255639452E-1,2.568097134E0
1.074843125E1,-2.494770107E0,-2.328005689E-1,3.528522751E-1,2.530331741E0
1.075845825E1,-2.534241736E0,-2.196967394E-1,4.592349087E-1,2.584868379E0
1.076848425E1,-2.553296058E0,-2.379109623E-1,4.842276625E-1,2.609674082E0
1.077851125E1,-2.480671885E0,-2.568930343E-1,4.654219937E-1,2.536995204E0
1.078853725E1,-2.338823111E0,-2.485750411E-1,4.603322849E-1,2.396620310E0
1.079856325E1,-2.114263133E0,-1.972056071E-1,6.072409469E-1,2.208560666E0
1.080859025E1,-1.874443091E0,-1.239199317E-1,7.312992749E-1,2.015860035E0
1.081861625E1,-1.650465496E0,-9.773679435E-2,8.083921820E-1,1.840403965E0
1.082864225E1,-1.488577144E0,-2.988197632E-2,8.244024432E-1,1.701879618E0
1.083866925E1,-1.341524933E0,8.643467467E-2,7.721276043E-1,1.550271311E0
1.084869525E1,-1.134140566E0,1.891282999E-1,6.737862079E-1,1.332678578E0
1.085872125E1,-8.382129818E-1,1.960446424E-1,6.797598696E-1,1.096862792E0
1.086874825E1,-5.022419107E-1,7.736469302E-2,6.970505248E-1,8.626190739E-1
1.087877425E1,-6.451876223E-2,-7.135569222E-2,6.658445196E-1,6.727579281E-1
1.088880025E1,4.049465811E-1,-1.469814599E-1,6.524410933E-1,7.818341662E-1
1.089882725E1,9.923964572E-1,-1.244666098E-1,6.990204518E-1,1.220234509E0
1.090885325E1,1.537400810E0,-5.487688635E-2,7.734560917E-1,1.721873122E0
1.091887925E1,1.858918149E0,1.507302560E-2,8.424732631E-1,2.040971602E0
1.092890625E1,2.018991525E0,1.039031949E-1,9.231443739E-1,2.222457690E0
1.093893225E1,2.055379332E0,2.015604671E-1,9.648655732E-1,2.279512315E0
1.094895925E1,1.911930760E0,4.502578977E-1,8.939848942E-1,2.158105743E0
1.095898525E1,1.635689582E0,6.803382323E-1,7.039059466E-1,1.906259190E0
1.096901125E1,1.497619863E0,7.105554003E-1,4.281845856E-1,1.712044471E0
1.097903825E1,1.733880120E0,3.990529532E-1,1.656128816E-1,1.786899873E0
1.098906425E1,2.101578183E0,-1.055778375E-1,3.903557315E-2,2.104590534E0
1.099909025E1,2.383846087E0,-2.527284646E-1,2.049552874E-1,2.405951062E0
1.100911725E1,2.444262443E0,1.379779172E-1,2.778269434E-1,2.463867814E0
1.101914325E1,2.334076341E0,5.137349420E-1,-2.184417441E-2,2.390044587E0
1.102916925E1,2.315436003E0,5.752152351E-1,-3.362635781E-1,2.409396116E0
1.103919625E1,2.204760489E0,5.513098441E-1,-4.607939225E-1,2.318888182E0
1.104922225E1,1.950460988E0,6.147448249E-1,-3.000927021E-1,2.066945789E0
1.105924825E1,1.764617763E0,6.156260003E-1,1.379058503E-1,1.874003534E0
1.106927525E1,1.596302737E0,4.222394291E-1,5.757092518E-1,1.748687996E0
1.107930125E1,1.520660816E0,1.428431295E-1,9.652596755E-1,1.806803730E0
1.108932825E1,1.557753798E0,-2.177038255E-1,1.184694862E0,1.969135284E0
1.109935425E1,1.731644145E0,-6.163283240E-1,1.371398358E0,2.293291412E0
1.110938025E1,1.908250523E0,-7.788755105E-1,1.618025582E0,2.620319427E0
1.111940725E1,1.880037122E0,-5.959740932E-1,1.655526115E0,2.574974061E0
1.112943325E1,1.714707100E0,-2.297205115E-1,1.444345297E0,2.253691480E0
1.113945925E1,1.467238315E0,1.078353012E-1,9.157341975E-1,1.732912533E0
1.114948625E1,1.103692360E0,1.515118277E-1,2.242674713E-1,1.136392783E0
1.115951225E1,6.025672674E-1,-7.437365949E-3,-3.017940956E-1,6.739601638E-1
1.116953825E1,-3.686552525E-2,-1.428368803E-1,-7.833631754E-1,7.971319250E-1
1.117956525E1,-7.191239101E-1,-1.552884530E-1,-1.177639757E0,1.388556481E0
1.118959125E1,-1.285379968E0,-9.459817344E-2,-1.419576783E0,1.917380693E0
1.119961725E1,-1.764704302E0,8.068878030E-2,-1.580712014E0,2.370515223E0
1.120964425E1,-2.326449818E0,2.215910545E-1,-1.576527746E0,2.819026620E0
1.121967025E1,-2.619267268E0,3.396124247E-1,-1.529587761E0,3.052136356E0
1.122969725E1,-2.767590664E0,3.456433891E-1,-1.619071210E0,3.224968065E0
1.123972325E1,-2.843425543E0,1.559112545E-1,-1.632779130E0,3.282582036E0
1.124974925E1,-2.810184122E0,-4.762396351E-2,-1.448955826E0,3.162099908E0
1.125977625E1,-2.597241976E0,-1.173246744E-1,-1.128822670E0,2.834373226E0
1.126980225E1,-2.317190752E0,-5.771633538E-2,-7.565281101E-1,2.438245053E0
1.127982825E1,-2.091194698E0,-5.759294542E-2,-4.294098696E-1,2.135604141E0
1.128985525E1,-1.799757190E0,-6.529410303E-2,-2.326595414E-1,1.815907411E0
1.129988125E1,-1.608702927E0,-1.621002947E-1,-3.052740660E-1,1.645416017E0
1.130990725E1,-1.536981565E0,-3.182144659E-1,-4.106642810E-1,1.622411147E0
1.131993425E1,-1.515386628E0,-4.390185991E-1,-4.761764851E-1,1.647992114E0
1.132996025E1,-1.525158495E0,-5.247764220E-1,-4.208732271E-1,1.666923214E0
1.133998625E1,-1.448735386E0,-5.102610015E-1,-1.649138470E-1,1.544796778E0
1.135001325E1,-1.370164011E0,-4.707791396E-1,7.229029655E-2,1.450588950E0
1.136003933E1,-1.290461199E0,-3.696851664E-1,1.889469266E-1,1.355602511E0
1.137006633E1,-1.229437317E0,-2.806407149E-1,1.740141611E-1,1.273010705E0
1.138009233E1,-1.190336401E0,-2.399036203E-1,1.461684045E-1,1.223037080E0
1.139011833E1,-1.240982060E0,-2.495785329E-1,-1.970920980E-2,1.265983558E0
1.140014533E1,-1.210625070E0,-2.076251992E-1,-1.927142876E-1,1.243326217E0
1.141017133E1,-9.890167665E-1,-1.456008226E-1,-2.516071513E-1,1.030853977E0
1.142019733E1,-8.480620319E-1,-7.390390880E-2,-3.256209147E-1,9.114274396E-1
1.143022433E1,-7.877281219E-1,-5.409626478E-2,-4.541925623E-1,9.108967469E-1
1.144025033E1,-6.060609788E-1,-7.189911783E-2,-4.967700863E-1,7.869306906E-1
1.145027633E1,-2.698858398E-1,-1.224307555E-1,-3.720881528E-1,4.756860833E-1
1.146030333E1,2.663026661E-1,-8.452809865E-2,-1.195606497E-1,3.039027120E-1
1.147032933E1,6.793985116E-1,-3.157818049E-2,6.726578414E-2,6.834502212E-1
1.148035533E1,1.128906723E0,-5.089277633E-2,1.964857417E-1,1.147007895E0
1.149038233E1,1.555176930E0,-1.084117636E-1,1.264665037E-1,1.564072304E0
1.150040833E1,1.956577760E0,-1.542899861E-1,1.167798601E-1,1.966122953E0
1.151043533E1,2.272598131E0,-1.569207763E-1,1.764268684E-1,2.284831030E0
1.152046133E1,2.525935766E0,-7.559128733E-2,2.662458019E-1,2.541053397E0
1.153048733E1,2.749407578E0,-2.450698911E-1,2.423665041E-1,2.770928148E0
1.154051433E1,2.933421208E0,-5.488682296E-1,3.551747891E-1,3.005389401E0
1.155054033E1,2.990094177E0,-6.596612352E-1,6.902085516E-1,3.138822068E0
1.156056633E1,2.816320775E0,-7.133639641E-1,9.863267550E-1,3.068125049E0
1.157059333E1,2.500976341E0,-7.827702677E-1,1.156456465E0,2.864437730E0
1.158061933E1,2.239549668E0,-7.990255272E-1,1.396531445E0,2.757593985E0
1.159064533E1,1.838187431E0,-6.364864538E-1,1.510999170E0,2.463161896E0
1.160067233E1,1.278893652E0,-3.570909217E-1,1.365088920E0,1.904350456E0
1.161069833E1,7.326146060E-1,-1.848950254E-1,1.004710693E0,1.257121278E0
1.162072433E1,5.002000630E-1,-2.664679778E-1,5.435826024E-1,7.852944237E-1
1.163075133E1,3.590313202E-1,-4.027198152E-1,2.478891993E-1,5.937472472E-1
1.164077733E1,2.400632858E-1,-6.543711130E-1,9.272222221E-3,6.970781225E-1
1.165080333E1,2.098442906E-1,-9.743336771E-1,-8.496208996E-2,1.000289607E0
1.166083033E1,2.931045485E-1,-1.150534258E0,-4.119655788E-2,1.187996849E0
1.167085633E1,4.433458310E-1,-1.126424215E0,1.140981808E-1,1.215896966E0
1.168088333E1,7.962457609E-1,-9.097532999E-1,3.960941890E-1,1.272222066E0
1.169090933E1,9.844863439E-1,-5.810109953E-1,5.748216444E-1,1.279533923E0
1.170093533E1,9.601905781E-1,-2.779238610E-1,5.850364378E-1,1.158220727E0
1.171096233E1,7.169031376E-1,-8.164993465E-2,5.235710916E-1,8.914838801E-1
1.172098833E1,2.472881055E-1,-1.895228773E-2,2.048642170E-1,3.216829864E-1
1.173101433E1,-1.724396521E-1,-2.789927320E-1,-7.015050799E-2,3.354004650E-1
1.174104133E1,-4.463284957E-1,-4.343617304E-1,8.248988718E-2,6.282386652E-1
1.175106733E1,-6.845241809E-1,-4.043468030E-1,3.414285699E-1,8.652416770E-1
1.176109333E1,-8.951332873E-1,-3.272585736E-1,4.284459561E-1,1.044953450E0
1.177112033E1,-1.169116856E0,-2.598356456E-1,3.206522432E-1,1.239825248E0
1.178114633E1,-1.497005321E0,-2.208776942E-1,2.644821355E-1,1.536151909E0
1.179117233E1,-1.615011488E0,-1.383781591E-1,2.539127085E-1,1.640695671E0
1.180119933E1,-1.789255591E0,-1.752230729E-1,8.207999736E-2,1.799687701E0
1.181122533E1,-2.010662166E0,-2.818401799E-1,-1.686635202E-1,2.037312842E0
1.182125233E1,-2.231588684E0,-3.490338971E-1,-4.099526748E-1,2.295620594E0
1.183127833E1,-2.441263406E0,-3.832902485E-1,-4.945975533E-1,2.520179591E0
1.184130433E1,-2.447444497E0,-3.909172104E-1,-3.824374321E-1,2.507799678E0
1.185133133E1,-2.376219563E0,-3.622379333E-1,-2.155438641E-1,2.413316161E0
1.186135733E1,-2.353866827E0,-4.022540845E-1,1.981329024E-3,2.387991063E0
1.187138333E1,-2.270460974E0,-4.112997271E-1,2.693759626E-1,2.323084998E0
1.188141033E1,-2.103678503E0,-2.767343912E-1,4.393094981E-1,2.166803637E0
1.189143633E1,-2.054046167E0,-9.196763903E-2,3.379310578E-1,2.083689301E0
1.190146233E1,-2.056522463E0,4.139799446E-2,2.720949179E-1,2.074857605E0
1.191148933E1,-1.902902659E0,1.945508981E-1,2.810072440E-1,1.933352956E0
1.192151533E1,-1.761245089E0,3.098173526E-1,3.376237866E-1,1.819879358E0
1.193154133E1,-1.818568853E0,3.530705224E-1,2.418285602E-1,1.868243163E0
1.194156833E1,-1.918089048E0,3.126795647E-1,7.366556168E-2,1.944803517E0
1.195159433E1,-1.849119970E0,3.699192743E-1,6.986428678E-2,1.887052185E0
1.196162133E1,-1.782858737E0,4.587740019E-1,1.195878392E-1,1.844819805E0
1.197164733E1,-1.666766948E0,5.543446952E-1,3.293838903E-1,1.787149643E0
1.198167333E1,-1.459229969E0,6.296147329E-1,5.027202129E-1,1.666881647E0
1.199170033E1,-1.100056561E0,7.858929732E-1,6.610499489E-1,1.504905060E0
1.200172633E1,-6.621731991E-1,8.699674559E-1,8.432322317E-1,1.380708991E0
1.201175233E1,-2.830385667E-1,8.831573126E-1,9.895789763E-1,1.356224251E0
1.202177933E1,1.853637528E-1,9.435871169E-1,1.194905416E0,1.533791159E0
1.203180533E1,6.580205065E-1,1.008220485E0,1.424763556E0,1.865328583E0
1.204183133E1,9.366262990E-1,1.046146695E0,1.531191652E0,2.077556162E0
1.205185833E1,1.297343372E0,9.508370796E-1,1.577182927E0,2.252708805E0
1.206188433E1,1.575073836E0,8.397636634E-1,1.606475430E0,2.401421227E0
1.207191033E1,1.712357104E0,8.105831337E-1,1.715594415E0,2.555870901E0
1.208193733E1,1.810935897E0,8.871193859E-1,1.751922873E0,2.671273738E0
1.209196333E1,1.817708142E0,7.281381239E-1,1.491576473E0,2.461513436E0
1.210199033E1,1.931250545E0,3.564097211E-1,1.111925532E0,2.256797498E0
1.211201633E1,2.136557397E0,6.975978607E-2,1.039883742E0,2.377204689E0
1.212204233E1,2.483993104E0,9.345064824E-2,1.339825440E0,2.823842590E0
1.213206933E1,2.698826823E0,2.648765119E-1,1.658571198E0,3.178786594E0
1.214209533E1,2.680766528E0,2.269897887E-1,1.643226935E0,3.152495567E0
1.215212133E1,2.725113566E0,5.503648792E-2,1.668307397E0,3.195703762E0
1.216214833E1,2.410020563E0,-5.053689559E-2,1.881371749E0,3.057828110E0
1.217217433E1,1.727313112E0,4.790945381E-2,2.230944906E0,2.821882541E0
1.218220033E1,8.984878349E-1,9.867790371E-2,2.404197029E0,2.568497824E0
1.219222733E1,8.651481807E-2,1.038281313E-1,2.311462235E0,2.315409847E0
1.220225333E1,-3.874376786E-1,-1.550547105E-1,2.124446351E0,2.165045546E0
1.221227933E1,-4.330757815E-1,-5.212732820E-1,2.064049584E0,2.172459701E0
1.222230633E1,-4.724930316E-1,-8.469183165E-1,2.038305755E0,2.257257329E0
1.223233233E1,-2.432435864E-1,-9.980789275E-1,1.985294898E0,2.235335505E0
1.224235933E1,4.332213771E-1,-9.177962181E-1,1.783335578E0,2.051905564E0
1.225238533E1,9.913848889E-1,-8.178510766E-1,1.249320774E0,1.792352303E0
1.226241133E1,1.318397441E0,-6.781134398E-1,7.047970623E-1,1.641568929E0
1.227243833E1,1.720169569E0,-4.879071692E-1,2.103608921E-1,1.800357869E0
1.228246433E1,1.806308411E0,-3.676660497E-1,-1.354238534E-1,1.848314913E0
1.229249033E1,1.469409387E0,-3.758594607E-1,-4.570993593E-1,1.584100408E0
1.230251733E1,8.609299994E-1,-3.977780409E-1,-6.891157070E-1,1.172308957E0
1.231254333E1,3.436888111E-1,-3.337923986E-1,-8.252573061E-1,9.542478637E-1
1.232256933E1,-6.869192004E-2,-3.361406038E-1,-7.358893391E-1,8.119373159E-1
1.233259633E1,-4.574083847E-1,-3.491334459E-1,-4.340964130E-1,7.208025313E-1
1.234262233E1,-8.844486701E-1,-3.559621533E-1,-1.251283684E-1,9.615693492E-1
1.235264758E1,-1.283298944E0,-4.872857198E-1,-6.837295443E-2,1.374401111E0
1.236267458E1,-1.705940954E0,-6.562667803E-1,-1.947804013E-1,1.838167574E0
1.237270058E1,-1.983066232E0,-6.965643288E-1,-2.230016953E-1,2.113642188E0
1.238272758E1,-2.024569768E0,-6.959611885E-1,-2.088376924E-1,2.151013227E0
1.239275358E1,-1.815358146E0,-6.715598805E-1,-1.414225119E-1,1.940751968E0
1.240277958E1,-1.707093440E0,-7.115082040E-1,-1.953496277E-1,1.859724016E0
1.241280658E1,-1.921854070E0,-8.640670305E-1,-3.064265522E-1,2.129326685E0
1.242283258E1,-1.990681061E0,-9.629389156E-1,-2.614828062E-1,2.226754521E0
1.243285858E1,-1.994564781E0,-9.782798899E-1,-1.887390581E-1,2.229561087E0
1.244288558E1,-1.818038510E0,-9.602798943E-1,-6.727923274E-2,2.057165038E0
1.245291158E1,-1.794295306E0,-8.636727820E-1,2.917789847E-2,1.991551574E0
1.246293758E1,-1.906089976E0,-8.231640029E-1,7.420438260E-2,2.077566910E0
1.247296458E1,-1.988912278E0,-9.233450796E-1,1.331039706E-1,2.196828362E0
1.248299058E1,-2.006907669E0,-1.049087479E0,2.505645928E-1,2.278386610E0
1.249301658E1,-1.890921130E0,-1.105352677E0,5.799554998E-1,2.265774843E0
1.250304358E1,-1.746812407E0,-1.053981818E0,8.382761317E-1,2.205660475E0
1.251306958E1,-1.624914333E0,-9.753301158E-1,8.875842395E-1,2.092706670E0
1.252309658E1,-1.523283877E0,-9.451787290E-1,9.244102961E-1,2.017000495E0
1.253312258E1,-1.409828598E0,-8.708297009E-1,1.017967208E0,1.944792606E0
1.254314858E1,-1.275278903E0,-8.407948199E-1,1.115899884E0,1.891693623E0
1.255317558E1,-1.131684735E0,-7.464717031E-1,1.210976780E0,1.817799523E0
1.256320158E1,-1.026726630E0,-6.805784798E-1,1.426267168E0,1.884566972E0
1.257322758E1,-9.476348519E-1,-6.306444275E-1,1.623150520E0,1.982508970E0
1.258325458E1,-1.084185464E0,-5.912148982E-1,1.548974204E0,1.980988203E0
1.259328058E1,-1.164960070E0,-5.604927136E-1,1.466681368E0,1.955105696E0
1.260330658E1,-1.185572675E0,-4.585673394E-1,1.505016883E0,1.970010759E0
1.261333358E1,-1.228583039E0,-3.722828650E-1,1.402861056E0,1.901586169E0
1.262335958E1,-1.198465201E0,-5.104344445E-1,1.421592611E0,1.928156558E0
1.263338558E1,-9.393768293E-1,-7.309762162E-1,1.809814694E0,2.166145028E0
1.264341258E1,-4.465734941E-1,-9.056076971E-1,2.316243795E0,2.526764434E0
1.265343858E1,-6.919127226E-2,-1.078056412E0,2.553187884E0,2.772320586E0
1.266346558E1,2.649297398E-1,-1.112346531E0,2.575667505E0,2.818078364E0
1.267349158E1,8.078144771E-1,-1.136157271E0,2.572339562E0,2.925807306E0
1.268351758E1,1.268981452E0,-1.198228388E0,2.657082381E0,3.179017455E0
1.269354458E1,1.430915996E0,-1.186311471E0,2.833089420E0,3.388399497E0
1.270357058E1,1.544417469E0,-1.077320248E0,3.017944465E0,3.557222656E0
1.271359658E1,1.595356658E0,-9.674990129E-1,3.081502237E0,3.602342743E0
1.272362358E1,1.236201376E0,-9.805193004E-1,2.849010218E0,3.256757769E0
1.273364958E1,6.702037650E-1,-1.191546483E0,2.590172400E0,2.928813611E0
1.274367558E1,2.102588582E-1,-1.526375300E0,2.500476112E0,2.937075268E0
1.275370258E1,-8.641132236E-2,-1.789690624E0,2.687870018E0,3.230341264E0
1.276372858E1,-3.578209466E-1,-1.922898090E0,3.065859766E0,3.636628796E0
1.277375458E1,-5.191362709E-1,-2.013252482E0,3.368673908E0,3.958617426E0
1.278378158E1,-6.181571138E-1,-2.164834532E0,3.548891234E0,4.202767631E0
1.279380758E1,-5.515058720E-1,-2.267914804E0,3.663522389E0,4.343845368E0
1.280383458E1,-5.049708062E-1,-2.202719226E0,3.546457038E0,4.205273479E0
1.281386058E1,-6.428996068E-1,-2.158744656E0,3.342546502E0,4.030647034E0
1.282388658E1,-7.732293659E-1,-2.065467241E0,3.235210334E0,3.915434137E0
1.283391358E1,-9.820170647E-1,-1.936270672E0,3.074281218E0,3.763602880E0
1.284393958E1,-1.284519843E0,-1.834962399E0,2.814719222E0,3.597182582E0
1.285396558E1,-1.544789352E0,-1.804190257E0,2.750346348E0,3.633989771E0
1.286399258E1,-1.564083409E0,-1.832357172E0,2.897250917E0,3.768017064E0
1.287401858E1,-1.513527213E0,-1.788363598E0,2.996812920E0,3.803931737E0
1.288404458E1,-1.713896676E0,-1.671564296E0,2.946159075E0,3.796237915E0
1.289407158E1,-1.900505301E0,-1.582681063E0,2.785841286E0,3.725280045E0
1.290409758E1,-2.015522372E0,-1.529261486E0,2.586418780E0,3.618084193E0
1.291412358E1,-2.245793910E0,-1.493858642E0,2.576964125E0,3.730408560E0
1.292415058E1,-2.054620948E0,-1.414427725E0,2.781957858E0,3.736490674E0
1.293417658E1,-1.864948967E0,-1.342646429E0,3.056575849E0,3.824054132E0
1.294420358E1,-1.913244045E0,-1.237605293E0,3.285962704E0,3.998714859E0
1.295422958E1,-1.932480215E0,-1.160383162E0,3.521446450E0,4.181094829E0
1.296425558E1,-1.888600954E0,-1.067444885E0,3.670645759E0,4.263788508E0
1.297428258E1,-1.847246522E0,-9.727100515E-1,3.838242162E0,4.369277681E0
1.298430858E1,-1.794674791E0,-9.241848859E-1,3.968926263E0,4.452791370E0
1.299433458E1,-1.824986756E0,-8.798662803E-1,3.963611436E0,4.451399437E0
1.300436158E1,-1.800853543E0,-8.680326122E-1,3.887556410E0,4.371458445E0
1.301438758E1,-1.743030428E0,-7.962653491E-1,3.748144755E0,4.209606001E0
1.302441358E1,-1.716967633E0,-6.507997068E-1,3.610410082E0,4.050503558E0
1.303444058E1,-1.520867223E0,-5.399671228E-1,3.624463865E0,3.967535748E0
1.304446658E1,-1.302501200E0,-4.621430945E-1,3.784595128E0,4.029050248E0
1.305449358E1,-1.130846829E0,-2.991458917E-1,3.921900616E0,4.092628404E0
1.306451958E1,-9.242892587E-1,-1.440276658E-1,3.864454061E0,3.976060838E0
1.307454558E1,-8.015737438E-1,-4.955456793E-2,3.748067572E0,3.833143181E0
1.308457258E1,-7.741707677E-1,-1.838035695E-2,3.713947899E0,3.793822243E0
1.309459858E1,-8.154912865E-1,-3.712484926E-2,3.540329449E0,3.633226789E0
1.310462458E1,-9.653963542E-1,-8.099643521E-2,3.294813634E0,3.434289945E0
1.311465158E1,-1.049384590E0,-1.157440989E-1,3.112642753E0,3.286814510E0
1.312467758E1,-1.038784758E0,-8.677355736E-2,3.099675091E0,3.270258261E0
1.313470358E1,-9.954674149E-1,-1.225845373E-1,3.227030371E0,3.379305751E0
1.314473058E1,-9.175696385E-1,-2.077050868E-1,3.411831622E0,3.539162396E0
1.315475658E1,-8.257607514E-1,-2.825295666E-1,3.580044907E0,3.684891492E0
1.316478258E1,-7.355200875E-1,-3.522716466E-1,3.630119877E0,3.720598800E0
1.317480958E1,-6.959625041E-1,-4.002907357E-1,3.517382051E0,3.607848801E0
1.318483558E1,-7.202676255E-1,-4.340405720E-1,3.373932894E0,3.477153986E0
1.319486158E1,-6.140371656E-1,-3.903498843E-1,3.222413410E0,3.303537930E0
1.320488858E1,-3.603674090E-1,-3.125389391E-1,2.846617538E0,2.886308484E0
1.321491458E1,-8.538513601E-2,-3.114773771E-1,2.688615246E0,2.707944002E0
1.322494158E1,8.990912676E-2,-1.887048519E-1,2.826985511E0,2.834702851E0
1.323496758E1,1.939381099E-1,-1.110075619E-1,2.856192938E0,2.864921076E0
1.324499358E1,1.369148934E-1,-2.748936877E-1,2.674583682E0,2.692157147E0
1.325502058E1,1.277745259E-1,-6.071014908E-1,2.547404988E0,2.621863978E0
1.326504658E1,4.351708388E-1,-9.858876291E-1,2.638802816E0,2.850373375E0
1.327507258E1,9.476980019E-1,-1.285011009E0,2.768036807E0,3.195530090E0
1.328509958E1,1.201509261E0,-1.317458963E0,3.027321060E0,3.513402257E0
1.329512558E1,1.077254759E0,-1.142734804E0,3.237820823E0,3.598583656E0
1.330515158E1,8.797521865E-1,-9.227344841E-1,3.233372262E0,3.475643684E0
1.331517858E1,5.714822996E-1,-5.365223088E-1,2.889503356E0,2.993940188E0
1.332520458E1,1.826260865E-1,-2.648575267E-1,2.441782054E0,2.462884771E0
1.333523158E1,-2.044847327E-1,-2.406713597E-1,2.204148140E0,2.226657974E0
1.334525758E1,-2.852552462E-1,-3.514264315E-1,2.060962254E0,2.110079739E0
1.335528396E1,-5.346518576E-2,-5.520437793E-1,1.916587921E0,1.995224328E0
1.336531096E1,2.911188340E-1,-7.382337803E-1,1.779459751E0,1.948388127E0
1.337533696E1,5.717617965E-1,-9.112818351E-1,1.568195756E0,1.901731859E0
1.338536296E1,7.943968713E-1,-9.516168058E-1,1.310993696E0,1.804257578E0
1.339538996E1,8.727682722E-1,-1.034670365E0,9.289553368E-1,1.641714116E0
1.340541596E1,9.910235310E-1,-1.259751622E0,6.261438257E-1,1.720801522E0
1.341544196E1,1.055237069E0,-1.543585702E0,5.841770433E-1,1.958939741E0
1.342546896E1,9.646894258E-1,-1.761047453E0,6.777096896E-1,2.119246150E0
1.343549496E1,8.434778148E-1,-1.783003748E0,8.300818437E-1,2.139998378E0
1.344552096E1,5.319276398E-1,-1.694632147E0,9.717654338E-1,2.024611860E0
1.345554796E1,1.609650761E-1,-1.571609068E0,1.067232339E0,1.906528176E0
1.346557396E1,-1.758456552E-1,-1.448971029E0,1.189054984E0,1.882628612E0
1.347560096E1,-4.407783186E-1,-1.423463720E0,1.091029337E0,1.846856655E0
1.348562696E1,-7.714342707E-1,-1.516165185E0,8.401861247E-1,1.897308732E0
1.349565296E1,-1.036659880E0,-1.627928280E0,6.991971838E-1,2.052727671E0
1.350567996E1,-1.158508837E0,-1.576806658E0,6.459705645E-1,2.060519336E0
1.351570596E1,-1.344851414E0,-1.523006719E0,3.565412834E-1,2.062836998E0
1.352573196E1,-1.414815103E0,-1.533031771E0,-1.238475358E-1,2.089790994E0
1.353575896E1,-1.368755416E0,-1.509110227E0,-4.885182032E-1,2.095126512E0
1.354578496E1,-1.048765955E0,-1.324137945E0,-7.060495359E-1,1.830780509E0
1.355581096E1,-9.522599995E-1,-1.315407029E0,-9.549248680E-1,1.883872677E0
1.356583796E1,-1.020519810E0,-1.316743117E0,-1.097244635E0,1.994797962E0
1.357586396E1,-1.104241413E0,-1.216070436E0,-1.057220736E0,1.953430851E0
1.358588996E1,-1.128086359E0,-1.143793150E0,-8.988038769E-1,1.840839486E0
1.359591696E1,-1.071186519E0,-1.150482510E0,-5.835778499E-1,1.676786710E0
1.360594296E1,-1.076295231E0,-1.183096525E0,-2.584276360E-1,1.620158528E0
1.361596896E1,-1.080418687E0,-1.207902168E0,-3.508709460E-2,1.620976031E0
1.362599596E1,-1.068824828E0,-1.171104324E0,1.384644055E-1,1.591554034E0
1.363602196E1,-1.121783645E0,-1.090637720E0,2.293877319E-1,1.581299439E0
1.364604896E1,-1.085615693E0,-9.159666243E-1,1.693195778E-1,1.430463355E0
1.365607496E1,-1.089257923E0,-8.087283969E-1,-1.187718603E-1,1.361848449E0
1.366610096E1,-1.176463882E0,-7.504961224E-1,-2.725007147E-1,1.421818672E0
1.367612796E1,-1.212065240E0,-6.642716186E-1,-2.365508634E-1,1.402253629E0
1.368615396E1,-1.140971868E0,-5.572532099E-1,-1.345423856E-1,1.276890597E0
1.369617996E1,-1.021301583E0,-3.973291575E-1,-7.619886786E-2,1.098514292E0
1.370620696E1,-1.018900132E0,-2.095757572E-1,-6.112737715E-2,1.042024967E0
1.371623296E1,-1.027064599E0,-5.504422635E-3,-1.299719095E-2,1.027161582E0
1.372625896E1,-8.394847512E-1,2.152235463E-1,-1.004548725E-1,8.724373925E-1
1.373628596E1,-7.061571246E-1,4.696801189E-1,-2.141159740E-1,8.747016343E-1
1.374631196E1,-7.342681986E-1,6.432407919E-1,-2.223055843E-1,1.001163461E0
1.375633896E1,-6.353385723E-1,8.535636771E-1,-1.227199003E-1,1.071114479E0
1.376636496E1,-2.706108946E-1,1.074114658E0,-1.280619165E-1,1.115057133E0
1.377639096E1,-1.034372449E-1,9.632166584E-1,-2.866495147E-1,1.010273992E0
1.378641796E1,-9.541486502E-3,7.682123087E-1,-3.021873209E-1,8.255654839E-1
1.379644396E1,9.418110251E-3,4.942264378E-1,-9.659921855E-2,5.036664389E-1
1.380646996E1,2.226075929E-1,3.522776400E-1,2.625481689E-1,4.925294073E-1
1.381649696E1,4.359157741E-1,2.920372854E-1,6.154007363E-1,8.087189898E-1
1.382652296E1,5.962294704E-1,2.081390233E-1,7.726732957E-1,9.979155557E-1
1.383654896E1,7.368637776E-1,1.356485692E-1,8.036176381E-1,1.098712915E0
1.384657596E1,8.447454911E-1,-1.370521568E-2,8.311817050E-1,1.185177541E0
1.385660196E1,1.124486813E0,-8.876698282E-2,1.081834591E0,1.562919144E0
1.386662796E1,1.407748159E0,-1.376261706E-1,1.280924682E0,1.908262006E0
1.387665496E1,1.636837390E0,-4.144951574E-1,1.408721135E0,2.198985701E0
1.388668096E1,1.725734364E0,-6.601936973E-1,1.596211520E0,2.441701462E0
1.389670796E1,1.717127847E0,-8.409307677E-1,1.843137976E0,2.655720278E0
1.390673396E1,1.759861638E0,-8.342707890E-1,2.046867833E0,2.825382923E0
1.391675996E1,1.755359282E0,-7.422252358E-1,2.040073661E0,2.791788862E0
1.392678696E1,1.656160099E0,-6.152435193E-1,2.038896908E0,2.697867948E0
1.393681296E1,1.318956435E0,-5.446694537E-1,1.993099469E0,2.451276480E0
1.394683896E1,8.592015624E-1,-4.134024590E-1,2.051491811E0,2.262243923E0
1.395686596E1,3.671519333E-1,-2.522110591E-1,1.975415150E0,2.025012586E0
1.396689196E1,-4.869327307E-2,-1.548902576E-1,1.729194746E0,1.736800650E0
1.397691796E1,-2.850874311E-1,-5.059193708E-2,1.465790837E0,1.494114174E0
1.398694496E1,-5.041030794E-1,2.541905243E-2,1.008685923E0,1.127924348E0
1.399697096E1,-4.723328179E-1,1.039656870E-2,4.343849730E-1,6.417917765E-1
1.400699696E1,-3.631161851E-1,-6.714365043E-2,-1.137350687E-1,3.863900872E-1
1.401702396E1,-2.302803093E-1,-3.176309503E-1,-3.580492803E-1,5.311475582E-1
1.402704996E1,2.350112915E-2,-5.147614938E-1,-5.344062746E-2,5.180613855E-1
1.403707696E1,2.085771990E-1,-5.670586982E-1,3.134285930E-1,6.806596051E-1
1.404710296E1,2.917959416E-1,-6.481474829E-1,4.922159824E-1,8.645904258E-1
1.405712896E1,2.990646154E-1,-7.391924313E-1,6.232997400E-1,1.012100618E0
1.406715596E1,2.770562804E-1,-7.668065650E-1,8.786350760E-1,1.198645939E0
1.407718196E1,5.455335259E-2,-8.895318009E-1,1.006820661E0,1.344593149E0
1.408720796E1,-1.300110859E-1,-1.116751824E0,1.025736404E0,1.521897726E0
1.409723496E1,-3.671431625E-1,-1.304053782E0,1.118802735E0,1.757005956E0
1.410726096E1,-6.119941485E-1,-1.443275987E0,1.305725063E0,2.040220663E0
1.411728696E1,-7.271141303E-1,-1.514589068E0,1.399526681E0,2.186629812E0
1.412731396E1,-8.669912231E-1,-1.405548436E0,1.380401023E0,2.152381744E0
1.413733996E1,-1.138576264E0,-1.195095012E0,1.118113056E0,1.993686234E0
1.414736596E1,-1.540113918E0,-1.221743551E0,5.557401332E-1,2.042903640E0
1.415739296E1,-1.947418097E0,-1.254722724E0,2.042148837E-1,2.325611764E0
1.416741896E1,-2.220249764E0,-1.187626436E0,8.688436210E-2,2.519427407E0
1.417744596E1,-2.306263475E0,-9.486153569E-1,-1.813221574E-2,2.493802536E0
1.418747196E1,-2.295035067E0,-6.517900790E-1,-9.893722773E-2,2.387845230E0
1.419749796E1,-2.254648933E0,-6.437095924E-1,5.816225410E-3,2.344746827E0
1.420752496E1,-2.028627151E0,-7.365373568E-1,1.916036090E-1,2.166685796E0
1.421755096E1,-1.818613876E0,-6.086283450E-1,4.387832487E-1,1.967311778E0
1.422757696E1,-1.604046789E0,-3.859649111E-1,7.514131120E-1,1.812886284E0
1.423760396E1,-1.512378820E0,-2.377713966E-1,8.945681539E-1,1.773154566E0
1.424762996E1,-1.482531123E0,-1.764471510E-1,8.151012772E-1,1.701006238E0
1.425765596E1,-1.474989384E0,-1.033746066E-1,7.926046997E-1,1.677647819E0
1.426768296E1,-1.463805415E0,-2.195064856E-1,7.239873317E-1,1.647746050E0
1.427770896E1,-1.499688023E0,-3.585751643E-1,6.840257058E-1,1.686870322E0
1.428773496E1,-1.515666710E0,-3.674164467E-1,5.175870511E-1,1.643209291E0
1.429776196E1,-1.387563570E0,-3.338722131E-1,6.235827452E-1,1.557452650E0
1.430778796E1,-1.197878725E0,-2.777548399E-1,7.744347695E-1,1.453206937E0
1.431781496E1,-1.193052433E0,-2.089213807E-1,8.132868862E-1,1.458923511E0
1.432784096E1,-1.196982347E0,-1.430565894E-1,8.707158995E-1,1.487070309E0
1.433786696E1,-1.291289164E0,-1.230633511E-1,8.592360610E-1,1.555910956E0
1.434789396E1,-1.344209974E0,-1.078385537E-1,7.777372769E-1,1.556728904E0
1.435792008E1,-1.409002386E0,-5.863865599E-2,5.987987369E-1,1.532085554E0
1.436794608E1,-1.462873369E0,-1.449539378E-2,5.204106715E-1,1.552751067E0
1.437797308E1,-1.262996827E0,9.253807146E-2,6.314460808E-1,1.415078949E0
1.438799908E1,-7.352593017E-1,3.175019096E-1,1.036045922E0,1.309505577E0
1.439802508E1,-8.118449628E-2,4.628899301E-1,1.567985256E0,1.636898217E0
1.440805208E1,4.061265492E-1,5.071335451E-1,1.797397546E0,1.911219806E0
1.441807808E1,8.451892948E-1,5.647852642E-1,1.927749525E0,2.179345216E0
1.442810408E1,1.294830238E0,6.342018005E-1,2.099894477E0,2.547224781E0
1.443813108E1,1.606572787E0,6.217827529E-1,2.183757876E0,2.781454362E0
1.444815708E1,1.573099816E0,7.302518924E-1,2.206505299E0,2.806523916E0
1.445818408E1,1.301831694E0,7.998254994E-1,1.800533116E0,2.361441528E0
1.446821008E1,1.056160929E0,6.271969092E-1,1.129288546E0,1.668575587E0
1.447823608E1,1.229618581E0,3.519484417E-1,5.626170436E-1,1.397271447E0
1.448826308E1,1.562818072E0,5.899467833E-2,5.225843740E-1,1.648931510E0
1.449828908E1,1.898479241E0,-1.359231325E-1,9.203248465E-1,2.114165639E0
1.450831508E1,1.789484802E0,-9.186900381E-2,1.127400481E0,2.117009120E0
1.451834208E1,1.524060972E0,-1.782585087E-1,9.397256157E-1,1.799339372E0
1.452836808E1,1.469173744E0,-5.453956778E-1,9.283960506E-1,1.821495858E0
1.453839408E1,1.386059666E0,-7.473380412E-1,1.405565101E0,2.110755504E0
1.454842108E1,1.085240301E0,-7.288590856E-1,2.096937540E0,2.471058301E0
1.455844708E1,5.136071438E-1,-7.605433930E-1,2.315806131E0,2.491019187E0
1.456847408E1,-9.077334523E-2,-7.170348461E-1,2.167862805E0,2.285171309E0
1.457850008E1,-4.985809690E-1,-5.000384240E-1,1.839080593E0,1.969984476E0
1.458852608E1,-6.257321817E-1,-3.704425270E-1,1.503665884E0,1.670263309E0
1.459855308E1,-5.504978120E-1,-3.234620496E-1,1.112675145E0,1.282856780E0
1.460857908E1,-3.600557524E-1,-1.023559120E-1,7.934294495E-1,8.772953715E-1
1.461860508E1,-1.000487834E-1,1.486237235E-1,5.678611189E-1,5.954536259E-1
1.462863208E1,1.362576663E-1,2.602237910E-1,4.866418317E-1,5.684213626E-1
1.463865808E1,4.030298638E-1,2.519988417E-1,4.626892975E-1,6.633384305E-1
1.464868408E1,6.305415165E-1,2.361465284E-1,4.769623509E-1,8.251308206E-1
1.465871108E1,7.255318737E-1,9.409635443E-2,3.639631543E-1,8.171412371E-1
1.466873708E1,6.810415792E-1,-1.067761512E-1,9.064763010E-2,6.952954566E-1
1.467876308E1,4.779145700E-1,-1.852669083E-1,-2.169258535E-1,5.565815209E-1
1.468879008E1,1.905297679E-1,-8.285870031E-2,-4.346875665E-1,4.817887889E-1
1.469881608E1,-2.718902653E-1,8.469326422E-4,-8.032975030E-1,8.480636250E-1
1.470884308E1,-7.849249667E-1,-3.143452171E-2,-1.128251835E0,1.374789997E0
1.471886908E1,-1.292463285E0,-4.712526910E-2,-1.325691842E0,1.852063983E0
1.472889508E1,-1.682556769E0,-8.478250735E-2,-1.439164956E0,2.215712329E0
1.473892208E1,-2.086367236E0,-2.205649412E-1,-1.374273726E0,2.508028192E0
1.474894808E1,-2.107748165E0,-2.992738361E-1,-1.112915173E0,2.402237986E0
1.475897408E1,-2.040778835E0,-3.615619951E-1,-8.964109039E-1,2.258109350E0
1.476900108E1,-1.912444146E0,-4.215347299E-1,-7.756325716E-1,2.106357051E0
1.477902708E1,-1.635646897E0,-2.751660948E-1,-6.780185688E-1,1.791861136E0
1.478905308E1,-1.138631812E0,-2.640054412E-3,-6.208778232E-1,1.296911194E0
1.479908008E1,-9.416408712E-1,1.968699769E-1,-8.827898151E-1,1.305665798E0
1.480910608E1,-8.699592698E-1,2.882132429E-1,-1.105899976E0,1.436283663E0
1.481913208E1,-6.372623062E-1,3.298523254E-1,-9.641064584E-1,1.201834875E0
1.482915908E1,-5.245402676E-1,3.866702315E-1,-6.785728848E-1,9.408068453E-1
1.483918508E1,-5.459299672E-1,4.309009461E-1,-4.745100287E-1,8.419471015E-1
1.484921208E1,-5.603152871E-1,4.944993201E-1,-3.676571327E-1,8.328592713E-1
1.485923808E1,-7.037574273E-1,5.366685988E-1,-3.971428871E-1,9.700567892E-1
1.486926408E1,-8.516890597E-1,5.388731453E-1,-4.410218552E-1,1.100117629E0
1.487929108E1,-7.941384244E-1,5.728317638E-1,-3.319107646E-1,1.033903681E0
1.488931708E1,-7.513268656E-1,6.112977451E-1,-2.037590933E-1,9.897953123E-1
1.489934308E1,-9.373379052E-1,5.673000786E-1,-3.477912176E-1,1.149517489E0
1.490937008E1,-1.075060884E0,6.505750275E-1,-5.072246155E-1,1.355094307E0
1.491939608E1,-1.078110791E0,8.751366138E-1,-4.872271380E-1,1.471590043E0
1.492942208E1,-1.019559113E0,1.095861330E0,-4.968478543E-1,1.577108313E0
1.493944908E1,-9.961603099E-1,1.269266650E0,-8.149194288E-1,1.807613583E0
1.494947508E1,-8.935790974E-1,1.381532167E0,-9.871126208E-1,1.918725113E0
1.495950208E1,-6.577427638E-1,1.459894505E0,-7.702180499E-1,1.776838021E0
1.496952808E1,-2.875321519E-1,1.449545079E0,-3.000951871E-1,1.507949865E0
1.497955408E1,5.397798657E-2,1.390764921E0,8.680279344E-2,1.394516193E0
1.498958108E1,4.267514330E-1,1.263334503E0,3.581878594E-1,1.380735093E0
1.499960708E1,9.424372619E-1,1.163955372E0,6.116743058E-1,1.617753244E0
1.500963308E1,1.394288453E0,1.073099289E0,8.092099151E-1,1.936595740E0
1.501966008E1,1.815611916E0,1.004053174E0,1.006569231E0,2.306024939E0
1.502968608E1,2.164641573E0,9.192666467E-1,1.185996306E0,2.633877663E0
1.503971208E1,2.379030905E0,8.700469780E-1,1.220920555E0,2.812012943E0
1.504973908E1,2.483365697E0,6.840251210E-1,8.763298112E-1,2.720836175E0
1.505976508E1,2.435275272E0,1.960993139E-1,5.185158813E-1,2.497574686E0
1.506979108E1,2.263622655E0,-4.084918211E-1,3.722042200E-1,2.330104949E0
1.507981808E1,2.108211265E0,-8.606016782E-1,6.317776179E-1,2.363119325E0
1.508984408E1,2.060375193E0,-9.500572072E-1,1.133987954E0,2.536470641E0
1.509987108E1,2.054161942E0,-8.602246059E-1,1.402484787E0,2.631830396E0
1.510989708E1,2.126135904E0,-8.618179721E-1,1.549741943E0,2.768552725E0
1.511992308E1,2.116290362E0,-9.606456377E-1,1.814824880E0,2.948747918E0
1.512995008E1,1.977424253E0,-9.302712527E-1,2.136482552E0,3.056169003E0
1.513997608E1,1.637416849E0,-7.016401505E-1,2.125129891E0,2.773014585E0
1.515000208E1,1.185470349E0,-4.233299348E-1,1.650002104E0,2.075344579E0
1.516002908E1,5.623103571E-1,-3.458637560E-1,8.675882238E-1,1.090194479E0
1.517005508E1,2.622382665E-1,-4.185197594E-1,1.761453250E-1,5.243613953E-1
1.518008108E1,1.911489880E-1,-6.826434240E-1,-3.442308480E-1,7.880576480E-1
1.519010808E1,5.404873788E-2,-9.471322107E-1,-7.002789187E-1,1.179140049E0
1.520013408E1,2.443609893E-2,-1.188462223E0,-8.366783801E-1,1.453640358E0
1.521016008E1,6.176998615E-2,-1.352298720E0,-7.480869234E-1,1.546661374E0
1.522018708E1,-2.847944856E-2,-1.412969137E0,-6.429019457E-1,1.552615784E0
1.523021308E1,-4.570768476E-2,-1.412134594E0,-4.498914966E-1,1.482772964E0
1.524024008E1,2.255621910E-2,-1.308432908E0,-1.518884432E-1,1.317412448E0
1.525026608E1,5.153735876E-2,-1.157458385E0,1.087392077E-1,1.163696794E0
1.526029208E1,8.153357506E-3,-1.052069924E0,2.808385518E-1,1.088938885E0
1.527031908E1,-1.554283476E-1,-1.029243271E0,1.530195871E-1,1.052100127E0
1.528034508E1,-4.023182577E-1,-1.086793322E0,-7.399651408E-3,1.158893636E0
1.529037108E1,-6.927921438E-1,-1.121511603E0,3.925411284E-2,1.318821488E0
1.530039808E1,-9.609916466E-1,-1.067628634E0,1.391125694E-1,1.443152158E0
1.531042408E1,-1.209308862E0,-1.009922609E0,9.018102229E-2,1.578133143E0
1.532045008E1,-1.496176770E0,-1.038026593E0,-1.521819735E-1,1.827348760E0
1.533047708E1,-1.695427660E0,-1.039317293E0,-3.593964788E-1,2.020846658E0
1.534050308E1,-1.678987044E0,-9.966932836E-1,-3.428690314E-1,1.982411201E0
1.535052908E1,-1.631602963E0,-9.502145704E-1,-2.698799926E-1,1.907320416E0
1.536055646E1,-1.647461781E0,-7.876785667E-1,-4.228852540E-1,1.874406515E0
1.537058246E1,-1.571248003E0,-5.438441923E-1,-5.207588732E-1,1.742348012E0
1.538060946E1,-1.504562847E0,-3.537215368E-1,-5.411791044E-1,1.637590642E0
1.539063546E1,-1.438325003E0,-1.396648389E-1,-5.953453714E-1,1.562920725E0
1.540066146E1,-1.418160880E0,3.228185635E-2,-6.424876705E-1,1.557245262E0
1.541068846E1,-1.395581272E0,1.784385664E-1,-6.116570565E-1,1.534148547E0
1.542071446E1,-1.348963176E0,2.863899714E-1,-4.891043866E-1,1.463196490E0
1.543074046E1,-1.280009301E0,2.865425107E-1,-3.045422870E-1,1.346579528E0
1.544076746E1,-1.151254781E0,1.933414015E-1,-6.752130747E-2,1.169327840E0
1.545079346E1,-1.102508883E0,1.316287912E-1,1.287504262E-1,1.117778444E0
1.546081946E1,-1.173722123E0,8.665785559E-2,1.335281861E-1,1.184467383E0
1.547084646E1,-1.178545491E0,3.754709132E-2,2.227865177E-1,1.200005455E0
1.548087246E1,-1.201182402E0,-2.240594566E-2,3.343443757E-1,1.247047453E0
1.549089946E1,-1.310354596E0,-9.225166753E-2,3.209092283E-1,1.352228631E0
1.550092546E1,-1.322421495E0,-2.270232640E-2,1.539618659E-1,1.331547319E0
1.551095146E1,-1.394142272E0,6.156036347E-2,-2.715856254E-2,1.395765002E0
1.552097846E1,-1.427957305E0,1.095904892E-1,-2.594585001E-2,1.432391472E0
1.553100446E1,-1.420105079E0,1.071703997E-1,1.334811160E-1,1.430384962E0
1.554103046E1,-1.352644583E0,5.741395667E-2,4.141270021E-1,1.415784201E0
1.555105746E1,-1.075459079E0,1.201673714E-1,6.196841142E-1,1.247020781E0
1.556108346E1,-8.450191408E-1,1.999019775E-1,8.788715959E-1,1.235489146E0
1.557110946E1,-5.350383586E-1,2.328171238E-1,1.224400526E0,1.356328318E0
1.558113646E1,-1.491823518E-1,2.301943552E-1,1.513943535E0,1.538593462E0
1.559116246E1,2.141285455E-1,2.502125173E-1,1.706831485E0,1.738312704E0
1.560118846E1,4.191810429E-1,2.945550234E-1,1.761935645E0,1.834909433E0
1.561121546E1,6.938820648E-1,3.334200771E-1,1.804599854E0,1.961943399E0
1.562124146E1,8.558686495E-1,4.344161826E-1,1.837714975E0,2.073264309E0
1.563126846E1,8.327785796E-1,6.018487177E-1,1.739406031E0,2.020216667E0
1.564129446E1,8.049119192E-1,6.484642558E-1,1.430620127E0,1.764954118E0
1.565132046E1,9.031504047E-1,4.748129144E-1,1.037720565E0,1.455332240E0
1.566134746E1,1.254576836E0,1.245073210E-1,8.887188917E-1,1.542493559E0
1.567137346E1,1.348606496E0,-1.177493285E-1,1.077897076E0,1.730452684E0
1.568139946E1,1.267451820E0,-1.385947254E-1,1.460870990E0,1.939016932E0
1.569142646E1,1.159590572E0,-1.434861405E-1,1.568265338E0,1.955682678E0
1.570145246E1,9.875058460E-1,-2.861050659E-1,1.384118098E0,1.724182941E0
1.571147846E1,1.024382481E0,-4.153522130E-1,1.538137559E0,1.894134124E0
1.572150546E1,9.311012650E-1,-3.572358596E-1,2.031672381E0,2.263240970E0
1.573153146E1,4.146278161E-1,-1.872139215E-1,2.057437845E0,2.107134491E0
1.574155846E1,-2.617219573E-1,-1.299828000E-1,1.549742821E0,1.577053176E0
1.575158446E1,-5.504492801E-1,-1.349610463E-2,1.050402883E0,1.185969128E0
1.576161046E1,-5.759571737E-1,9.191640280E-2,6.469458801E-1,8.710420557E-1
1.577163746E1,-2.460227680E-1,-1.104078569E-1,5.905146942E-1,6.491723202E-1
1.578166346E1,2.716025823E-1,-3.262584074E-1,8.426834705E-1,9.435719065E-1
1.579168946E1,1.010935054E0,-3.510566682E-1,1.289673871E0,1.675854756E0
1.580171646E1,1.726065901E0,-3.064663133E-1,1.628907689E0,2.393024311E0
1.581174246E1,2.070898427E0,-1.713472460E-1,1.714259203E0,2.693819740E0
1.582176846E1,2.092134345E0,8.691067457E-2,1.505327078E0,2.578873629E0
1.583179546E1,1.905410530E0,2.634875972E-1,7.440467897E-1,2.062430757E0
1.584182146E1,1.525116395E0,2.345677071E-1,-1.698414418E-1,1.552368559E0
1.585184846E1,1.038026374E0,7.475226671E-3,-7.776147777E-1,1.297011709E0
1.586187446E1,4.636163735E-1,-2.033062995E-1,-1.035388403E0,1.152520168E0
1.587190046E1,-1.265243912E-1,-3.062702123E-1,-1.153411819E0,1.200070285E0
1.588192746E1,-7.051280147E-1,-2.451766759E-1,-1.314737669E0,1.511903521E0
1.589195346E1,-1.190657998E0,-1.394941733E-1,-1.544689949E0,1.955298477E0
1.590197946E1,-1.579575607E0,1.848706864E-2,-1.663235815E0,2.293851400E0
1.591200646E1,-1.922770913E0,1.141707594E-1,-1.769389968E0,2.615496857E0
1.592203246E1,-1.936671499E0,1.408767474E-1,-1.553110232E0,2.486502392E0
1.593205846E1,-1.858681337E0,1.455997628E-1,-1.157623276E0,2.194535771E0
1.594208546E1,-1.706649052E0,7.523700088E-2,-6.622611997E-1,1.832184895E0
1.595211146E1,-1.501494813E0,4.965166826E-2,-2.095060292E-1,1.516853565E0
1.596213746E1,-1.374468731E0,5.991912313E-2,-3.041604638E-2,1.376110362E0
1.597216446E1,-1.202727821E0,9.038837917E-2,8.060123652E-2,1.208809675E0
1.598219046E1,-9.602356017E-1,1.473740273E-1,1.721554774E-1,9.866149315E-1
1.599221746E1,-8.755141246E-1,1.918117699E-1,6.310139716E-2,8.984979264E-1
1.600224346E1,-8.394356346E-1,1.656417523E-1,-1.180710715E-1,8.637303704E-1
1.601226946E1,-9.746624368E-1,1.319130389E-1,-3.718642044E-1,1.051499359E0
1.602229646E1,-1.231532959E0,7.883106507E-2,-5.908067626E-1,1.368188729E0
1.603232246E1,-1.298923874E0,-1.144205086E-2,-6.898360839E-1,1.470784815E0
1.604234846E1,-1.219025765E0,-2.129471887E-2,-7.395999822E-1,1.426003301E0
1.605237546E1,-1.253761150E0,3.900063604E-2,-8.847363532E-1,1.534990712E0
1.606240146E1,-1.267085200E0,1.908205572E-1,-9.171489313E-1,1.575779030E0
1.607242746E1,-1.202858214E0,3.674135962E-1,-7.917080292E-1,1.486156868E0
1.608245446E1,-1.072913201E0,5.720195125E-1,-7.271650010E-1,1.416727920E0
1.609248046E1,-1.034170720E0,6.804806851E-1,-7.267764536E-1,1.435537201E0
1.610250646E1,-1.021919049E0,7.913423590E-1,-6.260812604E-1,1.436147282E0
1.611253346E1,-1.071624475E0,8.696058787E-1,-6.019445390E-1,1.505632966E0
1.612255946E1,-1.146668226E0,9.058160041E-1,-5.470587721E-1,1.560328156E0
1.613258646E1,-1.023929906E0,9.355365242E-1,-3.659620249E-1,1.434429937E0
1.614261246E1,-9.196407223E-1,9.172290382E-1,-2.178809962E-1,1.317011881E0
1.615263846E1,-5.821166307E-1,9.616301626E-1,-1.871986091E-2,1.124252096E0
1.616266546E1,1.119157076E-3,1.091122235E0,2.539732271E-1,1.120290759E0
1.617269146E1,5.481659424E-1,1.191960539E0,5.786486471E-1,1.433907278E0
1.618271746E1,1.002847770E0,1.204400198E0,8.442093015E-1,1.780160900E0
1.619274446E1,1.240985568E0,1.135534688E0,1.044869370E0,1.980211153E0
1.620277046E1,1.458689686E0,1.018089707E0,1.134902458E0,2.110044038E0
1.621279646E1,1.502966557E0,9.311898503E-1,1.105195679E0,2.085061270E0
1.622282346E1,1.401194599E0,8.692668132E-1,9.452018255E-1,1.900625578E0
1.623284946E1,1.168183056E0,8.098555939E-1,6.075672215E-1,1.545851113E0
1.624287646E1,9.562062854E-1,6.555989552E-1,2.370429066E-1,1.183355310E0
1.625290246E1,1.072331403E0,3.466146847E-1,9.433020651E-3,1.126998385E0
1.626292846E1,1.315991312E0,-8.976448126E-2,1.252739641E-1,1.324984664E0
1.627295546E1,1.504396786E0,-3.562631021E-1,7.074587148E-1,1.700185555E0
1.628298146E1,1.583656964E0,-1.978447077E-1,1.451990823E0,2.157635108E0
1.629300746E1,1.633277020E0,2.787981659E-1,1.751410072E0,2.410966504E0
1.630303446E1,1.594670194E0,6.653209745E-1,1.292441358E0,2.157783514E0
1.631306046E1,1.346031967E0,5.032398842E-1,5.882462668E-1,1.552767242E0
1.632308646E1,1.118908569E0,8.399883427E-2,4.218102434E-1,1.198722683E0
1.633311346E1,8.063667065E-1,-3.148844766E-1,5.067585924E-1,1.003087120E0
1.634313946E1,5.063799852E-1,-6.711395388E-1,5.385054651E-1,9.984173005E-1
