"Time (s)","Linear Acceleration x (m/s^2)","Linear Acceleration y (m/s^2)","Linear Acceleration z (m/s^2)","Absolute acceleration (m/s^2)"
1.832679164E-2,-2.429553187E-1,5.963429064E-2,1.197427905E-1,2.773479248E-1
2.840879167E-2,-2.569287023E-1,1.043602279E-1,5.416919053E-2,2.825556873E-1
3.848979165E-2,-2.021207035E-1,1.863069087E-1,3.736663163E-2,2.774154072E-1
4.857179165E-2,-3.289079270E-1,9.072013557E-2,1.161058223E-1,3.604041196E-1
5.865379167E-2,-3.445015740E-1,-6.176735491E-2,-4.090712070E-3,3.500189632E-1
6.873479165E-2,-2.597540769E-1,1.215375933E-1,-1.254099119E-1,3.130035352E-1
7.881679165E-2,-2.121799609E-1,1.473711768E-1,1.242036313E-1,2.866446259E-1
8.889879167E-2,-6.922810972E-3,2.614500618E-1,-5.015039921E-2,2.663064450E-1
9.897979166E-2,-1.085249072E-1,1.923982456E-1,-1.615690935E-1,2.736773874E-1
1.090617916E-1,-1.751115373E-1,6.660651058E-2,-4.837401509E-3,1.874136553E-1
1.191437917E-1,-2.182186729E-1,2.434371293E-2,-1.083301950E-1,2.448416564E-1
1.292247917E-1,-2.045420355E-1,1.194989616E-1,-1.443572295E-1,2.774102662E-1
1.393067917E-1,-3.247721913E-1,1.909007737E-1,-1.852672738E-1,4.198142975E-1
1.493877917E-1,-5.205369714E-1,1.830473784E-1,-1.909776646E-1,5.838985782E-1
1.594697917E-1,-5.597089309E-1,1.845046507E-1,-1.779296029E-1,6.156094517E-1
1.695517917E-1,-7.036390212E-1,1.553447324E-1,-7.319544554E-2,7.242909852E-1
1.796327917E-1,-7.898778507E-1,1.236601326E-1,7.846144795E-2,8.033399319E-1
1.897147917E-1,-4.957827839E-1,3.424629423E-1,4.521476448E-2,6.042564113E-1
1.997967917E-1,-3.383029407E-1,4.208815594E-1,1.295918405E-1,5.553235200E-1
2.098777917E-1,-2.971207085E-1,1.959720638E-1,2.006659162E-1,4.085983054E-1
2.199597917E-1,-2.587223357E-1,1.195451546E-1,1.414622730E-1,3.181821265E-1
2.300407916E-1,-3.335058850E-1,2.763518371E-1,7.170557499E-2,4.390195926E-1
2.401227917E-1,-5.728265744E-1,3.537713112E-1,1.676326561E-1,6.938192361E-1
2.502047917E-1,-7.528582513E-1,2.865794943E-1,2.650507772E-1,8.480420200E-1
2.602857916E-1,-8.352405497E-1,3.921748003E-1,1.023917627E-1,9.283921171E-1
2.703677916E-1,-1.037595727E0,5.918940523E-1,5.857389808E-1,1.330426103E0
2.804497917E-1,-1.249711076E0,5.182366768E-1,1.057223952E0,1.716994325E0
2.905307917E-1,-8.349891195E-1,4.918403719E-1,5.076733893E-1,1.094004594E0
3.006127916E-1,1.113707471E-1,6.297956311E-1,-2.484107709E-1,6.861150715E-1
3.106937917E-1,4.701985842E-1,8.130476620E-1,-5.240923709E-1,1.075549173E0
3.207757917E-1,5.863105461E-1,9.821206335E-1,-2.522810429E-1,1.171309831E0
3.308577916E-1,5.268119109E-1,1.352112779E0,5.770348155E-1,1.561636620E0
3.409387917E-1,2.172857496E-1,1.812441263E0,1.151170582E0,2.158089464E0
3.510207917E-1,-4.939417881E-1,2.230478298E0,2.958808064E-1,2.303596618E0
3.611017917E-1,-1.170256186E0,2.138135560E0,-3.042004588E0,3.898065562E0
3.711837917E-1,-6.254756351E-1,8.098645109E-1,-4.323877981E0,4.443311950E0
3.812657917E-1,-1.026224354E-1,-4.944664295E-1,-4.150796304E0,4.181403876E0
3.913467916E-1,-7.392992891E-1,-1.089301339E0,-4.059011976E0,4.267167569E0
4.014287917E-1,4.051997656E-1,-1.345612429E0,-2.437393134E0,2.813493371E0
4.115107917E-1,1.356903403E0,-9.299360611E-1,-2.519385130E0,3.008865128E0
4.215917916E-1,1.929801021E0,-3.186911602E-2,-3.886776976E0,4.339606305E0
4.316737917E-1,3.409362635E0,3.942810405E-1,-4.883162404E0,5.968625150E0
4.417547917E-1,4.432827396E0,2.458055440E-1,-5.012364235E0,6.695832608E0
4.518367916E-1,4.810297326E0,1.201700392E-1,-4.295216684E0,6.449983532E0
4.619187917E-1,4.692798112E0,2.660112920E-1,-3.046136230E0,5.601076866E0
4.719997917E-1,3.448551259E0,3.156633988E-2,-2.333066527E0,4.163736500E0
4.820817916E-1,1.147843004E0,-4.473940046E-1,-1.745521926E0,2.136481161E0
4.921637917E-1,-3.854356504E0,-1.414402582E0,3.035452198E0,5.105934662E0
5.022447917E-1,-7.293982281E0,-1.978642082E0,7.004690117E0,1.030450803E1
5.123276250E-1,-3.414994381E0,-2.579994737E-1,-8.220834374E-2,3.425712855E0
5.224086250E-1,-1.905395912E0,1.321480532E0,3.990560961E-1,2.352889743E0
5.324906250E-1,-8.425838486E-1,1.841082533E0,2.716509388E0,3.388060757E0
5.425726250E-1,8.012229109E-1,2.109237743E0,4.014500631E0,4.605112086E0
5.526536250E-1,5.221242712E-1,1.357174275E0,6.254692909E0,6.421504430E0
5.627356250E-1,-1.353985642E0,2.849229781E-1,7.763486801E0,7.885821804E0
5.728166250E-1,-2.552005869E0,2.010335599E-1,9.162027349E0,9.512932965E0
5.828986250E-1,-2.687395809E0,2.723443016E-1,1.102126242E1,1.134744433E1
5.929806250E-1,-2.441970042E0,9.820983410E-3,1.257425015E1,1.280917956E1
6.030616250E-1,-1.812545490E0,-2.147691080E-1,1.331901702E1,1.344349885E1
6.131436250E-1,-1.243595765E0,-6.076055208E-1,1.490041521E1,1.496456108E1
6.232256250E-1,-1.234593538E-1,-5.178427206E-1,1.493492548E1,1.494441040E1
6.333066250E-1,1.298243404E0,9.884571880E-3,1.462793496E1,1.468543547E1
6.433886250E-1,2.184473429E0,2.528508541E-1,1.419981235E1,1.436908239E1
6.534696250E-1,2.378492376E0,4.053335206E-1,1.262427659E1,1.285277716E1
6.635516250E-1,2.065660199E0,4.852789919E-1,1.094182448E1,1.114567050E1
6.736336250E-1,1.446411410E0,5.909865645E-1,9.233501374E0,9.364770083E0
6.837146250E-1,8.646937059E-1,6.547883119E-1,7.866378500E0,7.940803086E0
6.937966250E-1,1.754985060E0,7.326746862E-1,6.566151282E0,6.836016926E0
7.038776250E-1,1.858339128E0,3.773154174E-1,5.128184713E0,5.467546954E0
7.139596250E-1,1.634037743E0,5.213095348E-1,3.678179312E0,4.058429010E0
7.240416250E-1,8.730495232E-1,6.751221505E-1,1.010241575E0,1.496192978E0
7.341226250E-1,-3.231016418E-1,6.478647700E-1,-1.415317964E0,1.589732169E0
7.442046250E-1,-3.094102987E0,1.818482606E-1,-3.717596562E0,4.840151473E0
7.542866250E-1,-6.437534757E0,-3.146000826E-1,-5.578403361E0,8.524048981E0
7.643676250E-1,-8.408306633E0,-4.544540790E-1,-6.791005960E0,1.081775905E1
7.744496250E-1,-7.692290518E0,-2.193024543E-1,-7.358379421E0,1.064730833E1
7.845306250E-1,-5.381943347E0,-1.718520069E-1,-7.589940856E0,9.306022217E0
7.946126250E-1,-2.997663690E0,-5.092834201E-1,-7.974898730E0,8.534891150E0
8.046946250E-1,-1.897387858E0,-7.570021731E-1,-8.424646093E0,8.668782773E0
8.147756250E-1,-2.352468174E0,-7.730207665E-1,-9.023106861E0,9.356715504E0
8.248576250E-1,-3.472206463E0,-6.720930004E-1,-9.387277883E0,1.003139635E1
8.349386250E-1,-4.300965374E0,-5.310423714E-1,-9.434946139E0,1.038260650E1
8.450206250E-1,-4.324013928E0,-6.125437868E-1,-9.298706599E0,1.027318114E1
8.551026250E-1,-3.953745429E0,-5.631833464E-1,-8.980336232E0,9.828312024E0
8.651836250E-1,-3.536888947E0,-4.499426597E-1,-9.020790778E0,9.699829797E0
8.752656250E-1,-3.232042605E0,-9.653831980E-1,-9.048002551E0,9.656314736E0
8.853466250E-1,-3.234679114E0,-1.650885618E0,-8.973079253E0,9.680120019E0
8.954286250E-1,-3.262902455E0,-2.065455547E0,-8.897695194E0,9.699567971E0
9.055106250E-1,-3.192891403E0,-2.312605366E0,-9.045669512E0,9.867463504E0
9.155916250E-1,-2.690008637E0,-2.433467313E0,-8.551330113E0,9.288872716E0
9.256736250E-1,-2.281266336E0,-2.603524225E0,-8.189840623E0,8.891344326E0
9.357556250E-1,-2.033490719E0,-2.803018359E0,-8.093259239E0,8.803001848E0
9.458366250E-1,-1.930035933E0,-2.755675793E0,-8.215744373E0,8.877907602E0
9.559186250E-1,-1.953604451E0,-2.720572911E0,-7.727717628E0,8.422333825E0
9.659996250E-1,-1.570980200E0,-2.626116112E0,-7.234034287E0,7.854662099E0
9.760816250E-1,-1.175919360E0,-2.457831199E0,-6.810378955E0,7.335187936E0
9.861636250E-1,-8.095511001E-1,-2.276235099E0,-6.096308793E0,6.557560531E0
9.962446250E-1,-1.403624117E-3,-1.875494421E0,-5.002799944E0,5.342797823E0
1.006326625E0,5.696946596E-1,-1.186346554E0,-2.990183054E0,3.266980999E0
1.016407625E0,6.486366025E-1,-2.031886974E-1,-8.125682634E-1,1.059378248E0
1.026489625E0,6.236903340E-1,8.690868652E-1,1.038002985E0,1.490554195E0
1.036571625E0,4.191556075E-1,1.856138383E0,3.237674643E0,3.755459787E0
1.046652625E0,-1.548663571E-1,2.663639741E0,6.105637441E0,6.663165076E0
1.056734625E0,-1.096998614E0,3.575781117E0,9.361568261E0,1.008109998E1
1.066815625E0,-2.147776449E0,4.760849762E0,1.280452286E1,1.382875409E1
1.076897625E0,-3.061605624E0,5.505699082E0,1.525368761E1,1.650336744E1
1.086979625E0,-2.221739196E0,4.884796116E0,1.626159556E1,1.712415978E1
1.097060625E0,-1.014036856E0,3.808840608E0,1.716486408E1,1.761158983E1
1.107142625E0,-8.934231229E-2,3.514528610E0,1.782327927E1,1.816670519E1
1.117223625E0,9.699313816E-1,3.203483926E0,1.808816983E1,1.839524297E1
1.127305625E0,2.092243396E0,2.376837614E0,1.723350805E1,1.752200443E1
1.137387625E0,2.822320895E0,1.186499166E0,1.535496723E1,1.565721221E1
1.147468625E0,2.938790999E0,1.687035736E-1,1.272868915E1,1.306462708E1
1.157550625E0,2.395977013E0,-2.942891943E-1,9.410488406E0,9.715173905E0
1.167631625E0,1.631476955E0,9.519764096E-2,6.041753102E0,6.258878509E0
1.177713625E0,1.049713131E0,7.329753792E-1,3.161146869E0,3.410571813E0
1.187795625E0,8.840360029E-1,9.904043108E-1,6.489725250E-1,1.477696075E0
1.197876625E0,7.313993353E-1,1.069038252E0,-1.203908374E0,1.768384331E0
1.207958625E0,6.088683732E-1,1.136852797E0,-2.366086923E0,2.694721193E0
1.218039625E0,7.041591311E-1,1.022074585E0,-3.170331675E0,3.404626187E0
1.228121625E0,7.652907474E-1,6.991430971E-1,-3.900672299E0,4.036051955E0
1.238203625E0,8.066789478E-1,3.309076747E-1,-4.745506668E0,4.824941901E0
1.248284625E0,6.141494322E-1,-1.725805700E-3,-5.611598589E0,5.645105954E0
1.258366625E0,2.198602787E-1,-2.441920048E-1,-6.422974021E0,6.431373380E0
1.268447625E0,-2.482314076E-1,-4.204914039E-1,-7.183999663E0,7.200575186E0
1.278529625E0,-6.546753144E-1,-6.344752309E-1,-7.848114722E0,7.900890031E0
1.288611625E0,-1.029218713E0,-9.193898767E-1,-8.244737792E0,8.359441977E0
1.298692625E0,-1.375702786E0,-1.104541668E0,-8.334513602E0,8.519195234E0
1.308774625E0,-1.647055838E0,-1.286788855E0,-8.410619792E0,8.666437779E0
1.318856625E0,-1.806625184E0,-1.529395387E0,-8.585427566E0,8.905757200E0
1.328937625E0,-1.805144084E0,-1.869170949E0,-8.702359015E0,9.082037086E0
1.339019625E0,-1.717090571E0,-2.168585520E0,-8.693682917E0,9.123118208E0
1.349100625E0,-1.667985362E0,-2.304454639E0,-8.677973202E0,9.132354858E0
1.359182625E0,-1.660480753E0,-2.415807552E0,-8.627073775E0,9.111516031E0
1.369264625E0,-1.576334349E0,-2.558678127E0,-8.501945699E0,9.017468847E0
1.379345625E0,-1.378998861E0,-2.716453547E0,-8.357735234E0,8.895644776E0
1.389427625E0,-1.115557822E0,-2.686844124E0,-8.158446338E0,8.661630750E0
1.399508625E0,-9.520475994E-1,-2.515810435E0,-7.986010194E0,8.426865111E0
1.409590625E0,-7.158487384E-1,-2.329818107E0,-7.848701783E0,8.218431207E0
1.419671625E0,-4.091771878E-1,-2.234089538E0,-7.700884171E0,8.028835473E0
1.429753625E0,-1.898218893E-1,-2.198613019E0,-7.606270375E0,7.919929329E0
1.439835625E0,2.612046249E-1,-2.269673646E0,-7.602687786E0,7.938545703E0
1.449916625E0,5.151099513E-1,-2.475992651E0,-7.568649974E0,7.979996259E0
1.459998625E0,6.166288709E-1,-2.578197010E0,-7.589167854E0,8.038830742E0
1.470079625E0,7.332513678E-1,-2.635052996E0,-7.609222049E0,8.085877940E0
1.480161625E0,7.421705644E-1,-2.631730316E0,-7.422172544E0,7.909833555E0
1.490243625E0,7.583489330E-1,-2.518813857E0,-6.985880794E0,7.464720143E0
1.500324625E0,6.677463265E-1,-2.198074198E0,-6.393266072E0,6.793472338E0
1.510406625E0,3.989818364E-2,-1.534633031E0,-5.437753267E0,5.650296540E0
1.520486500E0,-8.383078529E-1,-4.634614223E-1,-3.946125045E0,4.060721539E0
1.530568500E0,-1.676749753E0,1.226642641E0,-1.309733037E0,2.455919895E0
1.540650500E0,-3.305482756E0,3.018026910E0,3.417330928E0,5.631416639E0
1.550731500E0,-5.600829188E0,5.427269794E0,1.050817860E1,1.308611334E1
1.560813500E0,-6.885976437E0,8.112694799E0,1.969172896E1,2.238295508E1
1.570894500E0,-5.685277015E0,7.069143391E0,3.002734687E1,3.136776567E1
1.580976500E0,-2.034229369E0,2.368604442E0,3.743990893E1,3.756987034E1
1.591058500E0,2.344073472E0,-1.857235028E0,4.199479637E1,4.210115111E1
1.601139500E0,5.292481533E0,-4.683557172E0,4.213098972E1,4.271962504E1
1.611221500E0,5.057141043E0,-5.199983259E0,3.684739420E1,3.755455979E1
1.621302500E0,3.842480517E0,-3.325668806E0,3.069187592E1,3.110974087E1
1.631384500E0,3.010292798E0,-1.600950396E0,2.503189980E1,2.526303451E1
1.641466500E0,2.329060454E0,1.216893286E-2,1.889300866E1,1.903603023E1
1.651547500E0,2.408652607E0,1.783280468E0,1.275602605E1,1.310335443E1
1.661629500E0,2.431625148E0,2.408918655E0,7.512315559E0,8.255336154E0
1.671710500E0,2.315148320E0,2.085920217E0,2.661496444E0,4.098113983E0
1.681792500E0,2.204913687E0,1.873909094E0,-1.713506082E0,3.362927705E0
1.691874500E0,1.838928711E0,1.176168890E0,-5.504899183E0,5.921904008E0
1.701955500E0,1.686087318E0,4.668225481E-1,-8.618979474E0,8.794749622E0
1.712037500E0,2.009695036E0,3.491297914E-1,-1.106152400E1,1.124802556E1
1.722118500E0,2.253576993E0,2.496458490E-1,-1.275038700E1,1.295041702E1
1.732200500E0,2.549408536E0,2.211497359E-1,-1.390980566E1,1.414323459E1
1.742282500E0,2.649606424E0,3.579712200E-1,-1.461276026E1,1.485534652E1
1.752363500E0,2.670303813E0,5.472698566E-1,-1.509381771E1,1.533797118E1
1.762445500E0,2.652213405E0,6.584894532E-1,-1.536519869E1,1.560631843E1
1.772526500E0,2.451002820E0,7.758255297E-1,-1.547960297E1,1.569163561E1
1.782608500E0,2.003870479E0,8.395110637E-1,-1.533224144E1,1.548540937E1
1.792690500E0,1.427468186E0,8.098490158E-1,-1.488112407E1,1.497135179E1
1.802771500E0,8.440194862E-1,6.359984306E-1,-1.411044000E1,1.414996042E1
1.812853500E0,4.213538682E-1,2.564701344E-1,-1.326545887E1,1.327462674E1
1.822934500E0,4.233420677E-2,-1.461008692E-1,-1.226600950E1,1.226695262E1
1.833016500E0,-2.236370683E-1,-5.314712647E-1,-1.117539736E1,1.119026279E1
1.843097500E0,-3.931530395E-1,-8.743382496E-1,-1.013287272E1,1.017812096E1
1.853179500E0,-4.575388507E-1,-1.147696605E0,-8.803036959E0,8.889319940E0
1.863261500E0,-2.815730717E-1,-1.418470490E0,-8.902626151E0,9.019317841E0
1.873342500E0,-2.010708724E-1,-1.447616960E0,-8.852226661E0,8.972064490E0
1.883424500E0,-2.077983133E-1,-1.598988656E0,-8.579961004E0,8.730158973E0
1.893505500E0,-6.911310229E-2,-1.572294654E0,-8.778350015E0,8.918313522E0
1.903587500E0,-1.955773768E-1,-1.321446764E0,-8.902905064E0,9.002565780E0
1.913669500E0,-3.333457809E-1,-1.148734193E0,-8.911513919E0,8.991428696E0
1.923750500E0,-3.146728074E-1,-1.071557378E0,-8.862671542E0,8.932759991E0
1.933832500E0,-3.514052719E-1,-9.329505931E-1,-8.516566662E0,8.574718081E0
1.943913500E0,-3.551804902E-1,-6.284811770E-1,-8.313577647E0,8.344861596E0
1.953995500E0,-3.162495091E-1,-3.175073913E-1,-8.212778081E0,8.224995349E0
1.964076500E0,-3.185894186E-1,-6.884635963E-2,-7.957632487E0,7.964304981E0
1.974158500E0,-2.552125080E-1,-6.572094977E-2,-7.464522173E0,7.469172908E0
1.984240500E0,-2.550550351E-1,-2.514216484E-1,-6.551557217E0,6.561338879E0
1.994321500E0,-4.302645864E-1,-2.284054362E-1,-5.353352217E0,5.375469897E0
2.004403500E0,-7.931641321E-1,-1.074220858E-1,-3.790877377E0,3.874454817E0
2.014484500E0,-1.441023786E0,2.796142545E-1,-1.734211657E0,2.272052762E0
2.024566500E0,-2.135213999E0,7.272148485E-1,1.175419570E0,2.543539153E0
2.034648500E0,-3.094892653E0,1.141631580E0,6.461972610E0,7.255258315E0
2.044729500E0,-4.768289174E0,1.699986734E0,1.295085294E1,1.390507563E1
2.054811500E0,-5.831087278E0,2.747308427E0,2.018269160E1,2.118703194E1
2.064892500E0,-5.525810580E0,2.233087618E0,2.901985992E1,2.962555540E1
2.074974500E0,-2.865009662E0,-4.763900181E-1,3.677074656E1,3.688526847E1
2.085056500E0,9.325152679E-1,-3.482136789E0,4.210142620E1,4.225547242E1
2.095137500E0,4.909408216E0,-5.880752358E0,4.406700282E1,4.472791382E1
2.105219500E0,7.338087829E0,-7.468280178E0,4.180125821E1,4.309255075E1
2.115300500E0,7.251944894E0,-7.243889769E0,3.532894012E1,3.678584855E1
2.125382500E0,5.398673401E0,-5.210797099E0,2.818432789E1,2.916598052E1
2.135463500E0,3.613278142E0,-2.518791930E0,2.083011870E1,2.129070071E1
2.145545500E0,2.337473574E0,2.153221815E-1,1.391940445E1,1.411594724E1
2.155627500E0,1.336514162E0,2.267851069E0,8.708456492E0,9.097616888E0
2.165708500E0,1.166011107E0,3.169279177E0,4.867746804E0,5.924430045E0
2.175790500E0,1.303767123E0,3.100442830E0,2.106900319E0,3.968826452E0
2.185871500E0,1.587077585E0,2.891583796E0,-4.077947599E-1,3.323607780E0
2.195953500E0,1.775491392E0,2.631708974E0,-2.946931200E0,4.331589235E0
2.206035500E0,1.697335899E0,2.261648489E0,-5.517849596E0,6.200215094E0
2.216116500E0,1.464871070E0,2.117267286E0,-8.052531043E0,8.454106943E0
2.226198500E0,1.417170362E0,2.108303797E0,-1.022553589E1,1.053636090E1
2.236279500E0,1.261985843E0,2.243940196E0,-1.197019067E1,1.224391035E1
2.246361500E0,1.100565415E0,2.269599387E0,-1.301294803E1,1.325515530E1
2.256442500E0,1.013242585E0,2.191940177E0,-1.364128982E1,1.385337686E1
2.266524500E0,1.010730694E0,2.081630261E0,-1.410701938E1,1.429555025E1
2.276606500E0,1.024038445E0,1.941185842E0,-1.457203324E1,1.473638388E1
2.286687500E0,9.104925341E-1,1.797687568E0,-1.497972684E1,1.511465823E1
2.296769500E0,7.550823860E-1,1.737296502E0,-1.537795965E1,1.549419219E1
2.306850500E0,6.888339443E-1,1.622799541E0,-1.532560836E1,1.542667307E1
2.316932500E0,4.824274145E-1,1.351942917E0,-1.469771329E1,1.476764239E1
2.327014500E0,1.821706615E-1,1.143613786E0,-1.375760965E1,1.380626170E1
2.337095500E0,2.438504543E-2,9.376786517E-1,-1.275555360E1,1.278999544E1
2.347177500E0,-3.416513488E-2,6.503550261E-1,-1.180390522E1,1.182185718E1
2.357258500E0,-9.117179643E-2,3.695778700E-1,-1.088253606E1,1.088919148E1
2.367340500E0,6.201562403E-2,2.075759547E-1,-1.019803994E1,1.020034080E1
2.377421500E0,3.038126276E-1,-8.897812212E-2,-9.709464728E0,9.714624261E0
2.387503500E0,3.534881598E-1,-3.649169082E-1,-9.316923015E0,9.330764851E0
2.397585500E0,5.199787816E-1,-4.163889609E-1,-9.152964165E0,9.177173350E0
2.407666500E0,5.548257383E-1,-4.576997953E-1,-9.090552154E0,9.118961518E0
2.417748500E0,4.576046684E-1,-5.221086664E-1,-9.122469181E0,9.148849296E0
2.427829500E0,4.553727862E-1,-3.880275895E-1,-9.306583384E0,9.325793482E0
2.437911500E0,4.518590847E-1,-1.294993814E-1,-9.519009220E0,9.530607706E0
2.447992500E0,2.508841248E-1,5.542787679E-2,-9.545617560E0,9.549074808E0
2.458074500E0,-5.657564867E-2,1.370206549E-1,-9.375809155E0,9.376981005E0
2.468156500E0,-2.584368454E-1,2.023910275E-1,-9.092619730E0,9.098543031E0
2.478237500E0,-4.533070014E-1,3.103320903E-1,-8.645080860E0,8.662517897E0
2.488319500E0,-6.442688785E-1,5.674996879E-1,-7.992362609E0,8.038345499E0
2.498400500E0,-7.347130986E-1,8.365291299E-1,-7.269516361E0,7.354281233E0
2.508482500E0,-7.986354449E-1,1.021193702E0,-6.210741143E0,6.344600909E0
2.518564292E0,-5.945041763E-1,1.132168519E0,-4.593200149E0,4.767885106E0
2.528646292E0,-4.953073322E-1,1.046209772E0,-1.894351691E0,2.220011840E0
2.538728292E0,-9.231530716E-1,1.053612931E0,2.344081512E0,2.730756294E0
2.548809292E0,-1.105009884E0,1.333176132E0,7.625607117E0,7.819737166E0
2.558891292E0,-6.298983228E-1,1.378530499E0,1.409825440E1,1.417948855E1
2.568972292E0,-5.087729582E-1,1.027734178E0,2.184324237E1,2.187332450E1
2.579054292E0,7.002973375E-1,5.999672299E-1,2.959345073E1,2.960781490E1
2.589135292E0,4.203451651E0,-1.188030260E0,3.715334859E1,3.740924662E1
2.599217292E0,8.360355957E0,-4.192303349E0,4.205393277E1,4.308136744E1
2.609299292E0,1.176371847E1,-5.600276041E0,4.290103995E1,4.483578251E1
2.619380292E0,1.377532321E1,-5.628288297E0,3.974862356E1,4.244278777E1
2.629462292E0,1.358089042E1,-5.567597122E0,3.313256454E1,3.623817815E1
2.639543292E0,1.111982074E1,-4.400287056E0,2.640130601E1,2.898347631E1
2.649625292E0,8.075661458E0,-2.296774029E0,2.137516574E1,2.296495568E1
2.659706292E0,5.145733961E0,-5.002690601E-1,1.597631692E1,1.679200850E1
2.669788292E0,2.775649297E0,1.546327462E0,1.090048818E1,1.135411820E1
2.679870292E0,1.233647020E0,3.386105920E0,6.587486018E0,7.508832819E0
2.689951292E0,4.006076548E-1,4.180421222E0,2.969743527E0,5.143518709E0
2.700033292E0,6.593408078E-2,4.042746483E0,2.459262890E-1,4.050756247E0
2.710114292E0,-3.832034174E-1,3.166294758E0,-2.055343080E0,3.794298687E0
2.720196292E0,-5.941510776E-1,2.139439635E0,-4.186118749E0,4.738544886E0
2.730277292E0,-9.658515599E-1,1.341131269E0,-6.304878391E0,6.517897962E0
2.740359292E0,-1.607105176E0,6.963016427E-1,-8.148061098E0,8.334177985E0
2.750441292E0,-2.299589171E0,-7.040076882E-2,-9.843839006E0,1.010911633E1
2.760522292E0,-2.770678286E0,-9.535981348E-1,-1.124217490E1,1.161776674E1
2.770604292E0,-3.041445301E0,-1.764348499E0,-1.227539896E1,1.276905379E1
2.780685292E0,-3.277971899E0,-2.385975058E0,-1.293599984E1,1.355647700E1
2.790767292E0,-3.539621935E0,-2.872967138E0,-1.348961305E1,1.423911949E1
2.800848292E0,-3.617240800E0,-3.367623163E0,-1.367412662E1,1.453984372E1
2.810930292E0,-3.458839143E0,-3.909561821E0,-1.374027266E1,1.469841266E1
2.821012292E0,-3.327461563E0,-4.546672977E0,-1.365791580E1,1.477440014E1
2.831093292E0,-3.411697136E0,-5.090208217E0,-1.358300244E1,1.490127016E1
2.841175292E0,-3.513633986E0,-5.240933649E0,-1.340025122E1,1.481147333E1
2.851256292E0,-3.510868837E0,-5.170789281E0,-1.298829149E1,1.441384673E1
2.861338292E0,-3.445055209E0,-5.169375424E0,-1.231734454E1,1.379521019E1
2.871419292E0,-3.179884272E0,-5.007456082E0,-1.163391028E1,1.305887242E1
2.881501292E0,-2.920734212E0,-4.820207187E0,-1.115071743E1,1.249414202E1
2.891583292E0,-2.676051918E0,-4.715722121E0,-1.070627408E1,1.200098303E1
2.901664292E0,-2.294046888E0,-4.574412460E0,-1.027761236E1,1.148116790E1
2.911746292E0,-1.870378399E0,-4.271893018E0,-9.918711433E0,1.096030209E1
2.921827292E0,-1.619857953E0,-3.878208759E0,-9.647194805E0,1.052296586E1
2.931909292E0,-1.436352445E0,-3.517115125E0,-9.431044877E0,1.016748812E1
2.941990292E0,-1.170824535E0,-3.167381755E0,-9.185127944E0,9.786200111E0
2.952072292E0,-9.471141574E-1,-2.803138812E0,-8.934516281E0,9.411705138E0
2.962154292E0,-6.794837348E-1,-2.437504377E0,-8.738357983E0,9.097363683E0
2.972235292E0,-4.792106053E-1,-2.109830212E0,-8.551733571E0,8.821177551E0
2.982317292E0,-4.672078796E-1,-1.808983804E0,-8.180879765E0,8.391513531E0
2.992398292E0,-5.337421770E-1,-1.578671189E0,-7.994879251E0,8.166711558E0
3.002480292E0,-6.276882215E-1,-1.372326311E0,-7.842697862E0,7.986562575E0
3.012561292E0,-6.398787890E-1,-1.254080554E0,-7.564682053E0,7.694581046E0
3.022643292E0,-5.019945735E-1,-1.085090905E0,-7.079350290E0,7.179597576E0
3.032724292E0,-5.423296903E-1,-7.413846986E-1,-6.339633656E0,6.405835438E0
3.042806292E0,-5.724945988E-1,-2.807495280E-1,-5.376068065E0,5.413748997E0
3.052888292E0,-1.847644132E-1,2.117218316E-1,-3.694022343E0,3.704695006E0
3.062969292E0,7.082881424E-1,6.144989495E-1,-1.088472642E0,1.436681504E0
3.073051292E0,1.437550832E0,9.932880114E-1,2.751757573E0,3.259653848E0
3.083132292E0,1.633581368E0,1.529841968E0,7.202476280E0,7.542192592E0
3.093214292E0,1.117248983E0,2.817085590E0,1.254380955E1,1.290470358E1
3.103295292E0,1.046147279E0,4.589069676E0,1.961669749E1,2.017346785E1
3.113377292E0,3.282779187E0,4.267266408E0,2.738359380E1,2.790783781E1
3.123459292E0,6.757969192E0,2.112129776E0,3.314840348E1,3.389613389E1
3.133540292E0,9.958322811E0,9.607402164E-1,3.634668543E1,3.769844502E1
3.143622292E0,1.282842628E1,-4.335008740E-2,3.721533141E1,3.936434036E1
3.153703292E0,1.459989639E1,-1.079093855E0,3.511120151E1,3.804100274E1
3.163785292E0,1.377911688E1,-9.112423664E-1,3.059128977E1,3.356369221E1
3.173866292E0,1.117113708E1,-2.401050203E-1,2.514549483E1,2.751631996E1
3.183948292E0,8.613097175E0,3.919445662E-1,2.007552149E1,2.184869851E1
3.194029292E0,6.325785111E0,1.033851023E0,1.508416162E1,1.638951912E1
3.204111292E0,4.116243938E0,1.733289259E0,1.012524445E1,1.106654105E1
3.214193292E0,2.314155462E0,2.290541774E0,5.718838863E0,6.580806567E0
3.224274292E0,8.241399032E-1,2.467601896E0,1.828672841E0,3.179985858E0
3.234356292E0,-2.574169448E-1,2.249178132E0,-1.285543106E0,2.603399092E0
3.244437292E0,-9.807815480E-1,1.682219239E0,-3.941693441E0,4.396446428E0
3.254519292E0,-1.711437483E0,1.065440971E0,-6.318200687E0,6.632031562E0
3.264600292E0,-2.274337970E0,5.453703886E-1,-8.478791310E0,8.795450195E0
3.274682292E0,-2.833095267E0,1.256679203E-1,-1.042220231E1,1.080113523E1
3.284763292E0,-3.090595534E0,-2.189383189E-1,-1.211993085E1,1.250969378E1
3.294845292E0,-2.983066993E0,-8.037059310E-1,-1.331719971E1,1.367086098E1
3.304927292E0,-2.968932811E0,-1.264426032E0,-1.438317285E1,1.474072578E1
3.315008292E0,-3.074574748E0,-1.581340735E0,-1.511110442E1,1.550158460E1
3.325090292E0,-3.139610989E0,-1.802597475E0,-1.535719619E1,1.577814912E1
3.335171292E0,-3.292445219E0,-2.060575607E0,-1.535619865E1,1.583979180E1
3.345253292E0,-3.454997522E0,-2.136751524E0,-1.507053527E1,1.560845118E1
3.355334292E0,-3.595413144E0,-1.794896839E0,-1.477515382E1,1.531188495E1
3.365416292E0,-3.670738145E0,-2.010001431E0,-1.392559314E1,1.454085859E1
3.375497292E0,-3.869323037E0,-2.169152116E0,-1.255576125E1,1.331630663E1
3.385579292E0,-3.714697220E0,-2.094582867E0,-1.159066895E1,1.235029796E1
3.395661292E0,-3.420234656E0,-1.744603329E0,-1.088980765E1,1.154684185E1
3.405742292E0,-3.265516745E0,-1.674362481E0,-9.903721511E0,1.056176070E1
3.415824292E0,-3.053745212E0,-1.852941710E0,-9.177417805E0,9.848032817E0
3.425905292E0,-2.809002107E0,-1.912657569E0,-8.833486919E0,9.464631159E0
3.435987292E0,-2.638633831E0,-1.807033904E0,-8.394822369E0,8.983362546E0
3.446068292E0,-2.661865988E0,-1.752943943E0,-8.029621652E0,8.639048957E0
3.456150292E0,-2.657799250E0,-1.595939625E0,-7.861966192E0,8.451120194E0
3.466231292E0,-2.416371516E0,-1.910540731E0,-8.033555658E0,8.603896426E0
3.476313292E0,-1.482923179E0,-2.440543906E0,-7.971816663E0,8.467890919E0
3.486395292E0,-2.577874829E0,-1.809352179E0,-6.950987535E0,7.631213642E0
3.496476292E0,-3.810234877E0,-5.643834143E-1,-6.872703257E0,7.878481358E0
3.506558292E0,-3.046601084E0,5.744882070E-1,-5.717119782E0,6.503635404E0
3.516642500E0,-2.977238781E0,1.100839357E0,-4.294135534E0,5.339981089E0
3.526724500E0,-2.690624057E0,1.433584666E0,-4.771929066E0,5.662678679E0
3.536805500E0,-2.207343497E0,1.546204670E0,-4.588278548E0,5.321223001E0
3.546887500E0,-2.288208735E0,8.531784917E-1,-2.630172910E0,3.589097699E0
3.556968500E0,-2.013037305E0,2.369209190E-1,-7.352750891E-1,2.156172574E0
3.567050500E0,-1.536834215E0,8.331042695E-1,7.841385162E-1,1.915931977E0
3.577131500E0,-1.191592383E0,1.966879969E0,4.037079070E0,4.646129210E0
3.587213500E0,-8.683729202E-1,2.609483707E0,8.070056317E0,8.525801177E0
3.597295500E0,1.953145444E-2,2.272029197E0,1.252882430E1,1.273318250E1
3.607376500E0,1.705558839E0,7.765005907E-1,1.799232929E1,1.808965996E1
3.617458500E0,3.667300567E0,1.973434406E0,2.391335084E1,2.427327512E1
3.627539500E0,5.263956476E0,3.260980767E0,2.894701765E1,2.960190980E1
3.637621500E0,7.181233345E0,4.088719924E0,3.421810013E1,3.520179142E1
3.647702500E0,9.209025514E0,4.202961946E0,3.716483720E1,3.851877677E1
3.657784500E0,1.109997646E1,1.072685160E0,3.743777119E1,3.906336958E1
3.667865500E0,1.243720896E1,-8.970745629E-1,3.625094312E1,3.833562033E1
3.677947500E0,1.222154142E1,-8.348620887E-1,3.243559982E1,3.467176381E1
3.688029500E0,1.075875986E1,-6.022656973E-1,2.840674662E1,3.038185134E1
3.698110500E0,8.613332233E0,-4.805075908E-1,2.342532351E1,2.496329628E1
3.708192500E0,6.084852344E0,-4.327478988E-1,1.759035660E1,1.861809185E1
3.718273500E0,3.581281008E0,-4.714406790E-1,1.179801356E1,1.233859611E1
3.728355500E0,1.851770512E0,-3.137545753E-1,6.712541004E0,6.970344517E0
3.738436500E0,6.798601493E-1,-1.044170190E-1,2.188367820E0,2.293919452E0
3.748518500E0,-2.781912249E-1,-2.303593929E-1,-2.280705296E0,2.309128072E0
3.758599500E0,-9.536913979E-1,-7.271160306E-1,-6.339560566E0,6.451996061E0
3.768681500E0,-1.139252787E0,-1.381029891E0,-9.849817200E0,1.001119570E1
3.778762500E0,-1.280899685E0,-2.003505466E0,-1.270378820E1,1.292443317E1
3.788844500E0,-1.252088846E0,-2.418627518E0,-1.476056384E1,1.500972120E1
3.798926500E0,-1.151613508E0,-2.678695444E0,-1.625844742E1,1.651783083E1
3.809007500E0,-1.189388568E0,-2.994987419E0,-1.728056878E1,1.757847127E1
3.819089500E0,-1.425453235E0,-3.440673890E0,-1.768836061E1,1.807617921E1
3.829170500E0,-1.740699581E0,-3.860548413E0,-1.804272293E1,1.853304400E1
3.839252500E0,-1.922449755E0,-4.287946256E0,-1.770046318E1,1.831362042E1
3.849333500E0,-2.402476047E0,-4.717701988E0,-1.729296488E1,1.808522152E1
3.859415500E0,-3.075026153E0,-4.997076105E0,-1.690267259E1,1.789209032E1
3.869496500E0,-3.373010203E0,-4.922443414E0,-1.570031197E1,1.679605439E1
3.879578500E0,-3.576657907E0,-4.519283449E0,-1.454210251E1,1.564254296E1
3.889659500E0,-3.720763706E0,-4.424447751E0,-1.356705825E1,1.474736892E1
3.899741500E0,-3.576911384E0,-4.506329820E0,-1.245183635E1,1.371676099E1
3.909822500E0,-3.334207495E0,-4.547725183E0,-1.165225300E1,1.294502777E1
3.919904500E0,-2.946311688E0,-4.448341813E0,-1.088198993E1,1.211966180E1
3.929986500E0,-2.668561050E0,-4.301485776E0,-1.019975668E1,1.138679210E1
3.940067500E0,-2.635590648E0,-4.077609337E0,-9.749744443E0,1.089177454E1
3.950149500E0,-2.597213033E0,-3.749466518E0,-9.426166545E0,1.047170619E1
3.960230500E0,-2.406192099E0,-3.282161429E0,-8.920236211E0,9.804741614E0
3.970312500E0,-2.324216474E0,-2.770068129E0,-8.606929532E0,9.335657215E0
3.980393500E0,-2.359981846E0,-2.453648978E0,-8.388444811E0,9.052950567E0
3.990475500E0,-2.274529174E0,-2.130058509E0,-8.059879239E0,8.641312722E0
4.000556500E0,-2.072435953E0,-1.802358617E0,-7.826760691E0,8.294677225E0
4.010638500E0,-1.970697324E0,-1.467444137E0,-7.316846064E0,7.718372663E0
4.020719500E0,-2.022502485E0,-1.169301628E0,-6.788700988E0,7.179431990E0
4.030801500E0,-2.028624812E0,-7.921670356E-1,-6.378563833E0,6.740098205E0
4.040883500E0,-2.046222008E0,-4.624761665E-1,-5.983904843E0,6.340979884E0
4.050964500E0,-1.943587586E0,-1.891764298E-1,-5.477637709E0,5.815310422E0
4.061046500E0,-1.845366934E0,4.583632350E-2,-4.670137812E0,5.021719554E0
4.071127500E0,-1.582409168E0,4.018172975E-1,-3.432207415E0,3.800726727E0
4.081209500E0,-1.080782969E0,8.202175909E-1,-1.850712166E0,2.294773245E0
4.091290500E0,-5.031014514E-1,1.172188544E0,3.653106451E-1,1.326871856E0
4.101372500E0,2.336012354E-1,1.435788774E0,3.588226916E0,3.871876979E0
4.111453500E0,1.494467629E0,1.502773891E0,7.996970215E0,8.273046324E0
4.121535500E0,3.709006417E0,1.886262361E0,1.302227551E1,1.367093171E1
4.131616500E0,6.123412392E0,2.427753414E0,1.656184189E1,1.782371378E1
4.141698500E0,8.817602373E0,2.582866597E0,2.085064945E1,2.278532189E1
4.151779500E0,1.299858025E1,2.154072877E0,2.838015816E1,3.128955889E1
4.161861500E0,1.676611788E1,2.594054659E0,3.298511413E1,3.709244644E1
4.171943500E0,1.946560778E1,4.454503609E0,3.379449742E1,3.925328705E1
4.182024500E0,2.112949848E1,5.082262436E0,3.256784045E1,3.915289682E1
4.192106500E0,2.131624919E1,4.114169345E0,2.937733296E1,3.652857184E1
4.202187500E0,2.026698272E1,3.498983787E0,2.559749162E1,3.283633739E1
4.212269500E0,1.766612833E1,3.348842199E0,2.137466990E1,2.793176234E1
4.222350500E0,1.411077329E1,3.538548971E0,1.646240999E1,2.196921015E1
4.232432500E0,1.044860950E1,4.031652269E0,1.152219572E1,1.606824990E1
4.242513500E0,7.012421306E0,4.276425779E0,6.848887548E0,1.069435041E1
4.252595500E0,3.656210153E0,3.907979272E0,2.773527927E0,6.027655584E0
4.262676500E0,8.043757296E-1,3.034455540E0,-1.106449322E0,3.328538845E0
4.272758500E0,-1.503047833E0,1.822289144E0,-4.537004313E0,5.115104950E0
4.282839500E0,-3.225740476E0,4.158864293E-1,-7.177991649E0,7.880477603E0
4.292921500E0,-4.580560223E0,-1.048914767E0,-9.164993641E0,1.029945933E1
4.303003500E0,-5.470911657E0,-2.326983084E0,-1.067945407E1,1.222278462E1
4.313084500E0,-6.138004704E0,-3.500292101E0,-1.171438668E1,1.368042404E1
4.323166500E0,-6.703652067E0,-4.564311980E0,-1.240903239E1,1.482416877E1
4.333247500E0,-7.138424710E0,-5.230998060E0,-1.281320246E1,1.557236673E1
4.343329500E0,-7.522998422E0,-5.792685104E0,-1.306673306E1,1.615209642E1
4.353410500E0,-7.709470223E0,-6.247872716E0,-1.305769677E1,1.640046614E1
4.363492500E0,-7.859689286E0,-6.648167253E0,-1.285021300E1,1.646513947E1
4.373573500E0,-8.038572569E0,-6.924564552E0,-1.254335463E1,1.642875493E1
4.383655500E0,-8.131932138E0,-7.069688351E0,-1.207032775E1,1.618028509E1
4.393736500E0,-8.121093155E0,-7.008552203E0,-1.157295891E1,1.577990291E1
4.403818500E0,-7.944898421E0,-6.905996134E0,-1.103317670E1,1.524943218E1
4.413899500E0,-7.725123219E0,-6.781455703E0,-1.047706439E1,1.467768880E1
4.423981500E0,-7.438396229E0,-6.510341363E0,-9.885487554E0,1.397988367E1
4.434062500E0,-7.058176353E0,-6.210028367E0,-9.365412220E0,1.327001326E1
4.444144500E0,-6.699592929E0,-5.896900029E0,-8.889379284E0,1.259678687E1
4.454226500E0,-6.370545546E0,-5.510421878E0,-8.444949380E0,1.192752153E1
4.464307500E0,-6.028330234E0,-5.072677095E0,-8.079912969E0,1.128529184E1
4.474389500E0,-5.633053193E0,-4.624812828E0,-7.753959932E0,1.064162002E1
4.484470500E0,-5.277821394E0,-4.196518315E0,-7.454707037E0,1.005180688E1
4.494552500E0,-5.008106292E0,-3.680715834E0,-7.080222695E0,9.421165060E0
4.504633500E0,-4.701334462E0,-3.111239129E0,-6.552181115E0,8.643693192E0
4.514713000E0,-4.349118657E0,-2.476128014E0,-5.963244292E0,7.785006455E0
4.524794000E0,-4.091169323E0,-1.831716902E0,-5.240037271E0,6.895711989E0
4.534876000E0,-3.831268188E0,-1.306423805E0,-4.713345813E0,6.212969325E0
4.544957000E0,-3.426033924E0,-9.574917957E-1,-4.204425797E0,5.507421835E0
4.555039000E0,-2.742925354E0,-4.445898262E-1,-3.359998979E0,4.360148249E0
4.565120000E0,-2.291513289E0,1.451444109E-1,-2.430769408E0,3.343761350E0
4.575202000E0,-1.905992913E0,6.915442018E-1,-1.399891255E0,2.463886745E0
4.585283000E0,-1.196664843E0,1.190957960E0,4.622223973E-3,1.688315425E0
4.595365000E0,3.810688913E-2,1.649984270E0,1.877136319E0,2.499508148E0
4.605446000E0,2.279701329E0,1.904153963E0,4.733668395E0,5.588421686E0
4.615528000E0,5.675995145E0,1.823047674E0,8.253726132E0,1.018157251E1
4.625609000E0,8.502760216E0,1.154237739E0,1.197786573E1,1.473426155E1
4.635691000E0,1.020298669E1,5.803156883E-2,1.588876305E1,1.888271952E1
4.645773000E0,1.099915994E1,-6.964411718E-1,1.966885232E1,2.254618152E1
4.655854000E0,1.289465886E1,-1.016623226E0,2.302538565E1,2.640973560E1
4.665936000E0,1.510317092E1,-1.399162107E0,2.677976822E1,3.077692987E1
4.676017000E0,1.663384100E1,-1.462899828E0,2.879580631E1,3.328698249E1
4.686099000E0,1.806696081E1,-1.134840332E0,2.849612482E1,3.375991803E1
4.696180000E0,1.810332582E1,-1.146822300E0,2.716772396E1,3.266696852E1
4.706262000E0,1.727804395E1,-6.801450549E-1,2.487582826E1,3.029521797E1
4.716343000E0,1.551978036E1,3.322687604E-1,2.170448092E1,2.668442387E1
4.726425000E0,1.237798485E1,1.239900179E0,1.768884009E1,2.162514566E1
4.736506000E0,8.678739188E0,1.855071850E0,1.295086463E1,1.569989491E1
4.746588000E0,5.099884774E0,2.069228755E0,8.055661642E0,9.756239892E0
4.756669000E0,1.625910698E0,1.920076516E0,3.472430411E0,4.288129241E0
4.766751000E0,-8.372739190E-1,1.896439147E0,-4.783765000E-1,2.127522768E0
4.776832000E0,-2.796370075E0,1.861479668E0,-3.323469084E0,4.725488218E0
4.786914000E0,-4.502851312E0,1.310010195E0,-5.696475602E0,7.378457219E0
4.796995000E0,-6.103920114E0,7.262028417E-1,-7.575435083E0,9.755635706E0
4.807077000E0,-6.959446701E0,-1.167355675E-1,-8.793329412E0,1.121472994E1
4.817158000E0,-8.831127568E0,-1.278241103E0,-9.701565140E0,1.318116386E1
4.827240000E0,-8.851868811E0,-1.395668980E0,-9.889543183E0,1.334565614E1
4.837322000E0,-1.017706481E1,-2.245212697E0,-1.015421506E1,1.455066018E1
4.847403000E0,-9.590429451E0,-2.811868997E0,-1.022470792E1,1.429781789E1
4.857485000E0,-1.034173877E1,-3.599316160E0,-1.031394345E1,1.504274135E1
4.867566000E0,-1.091287375E1,-4.316044466E0,-1.017582052E1,1.553275174E1
4.877648000E0,-1.078333453E1,-4.509197295E0,-9.996074774E0,1.537968383E1
4.887729000E0,-1.087763609E1,-4.733414041E0,-9.620413388E0,1.527352380E1
4.897811000E0,-1.065670255E1,-4.906365910E0,-8.982231899E0,1.477559561E1
4.907892000E0,-1.048541656E1,-4.832749465E0,-8.160870593E0,1.413857265E1
4.917974000E0,-1.015484539E1,-4.449466525E0,-7.317535450E0,1.328401153E1
4.928055000E0,-9.593330255E0,-3.900601840E0,-6.287062510E0,1.211502518E1
4.938137000E0,-9.124654285E0,-3.764086312E0,-5.568115185E0,1.133276525E1
4.948218000E0,-8.502794130E0,-3.514025164E0,-4.638993788E0,1.030369566E1
4.958300000E0,-8.118578267E0,-3.095401653E0,-4.359784563E0,9.721139126E0
4.968381000E0,-8.296647618E0,-3.063880776E0,-4.357807619E0,9.859625467E0
4.978463000E0,-7.758759912E0,-3.486793219E0,-4.211999403E0,9.491945074E0
4.988544000E0,-7.190695310E0,-3.686698705E0,-3.170092524E0,8.680284154E0
4.998626000E0,-6.696835967E0,-2.821065498E0,-2.776653848E0,7.779192060E0
5.008707000E0,-6.691997981E0,-1.810924495E0,-2.715417713E0,7.445520658E0
5.018789000E0,-6.410289071E0,-1.363685880E0,-2.361876928E0,6.966341061E0
5.028870000E0,-6.247251157E0,-1.151320563E0,-2.380260574E0,6.783754599E0
5.038952000E0,-5.836938002E0,-9.500222701E-1,-2.547925390E0,6.439278790E0
5.049033000E0,-5.268460586E0,-7.908183753E-1,-2.470973693E0,5.872629874E0
5.059115000E0,-4.460004669E0,-2.929533979E-1,-2.082600460E0,4.930992600E0
5.069196000E0,-3.715835965E0,1.359558038E-1,-1.909446863E0,4.179941175E0
5.079278000E0,-2.637039295E0,3.669749089E-1,-1.289450215E0,2.958264472E0
5.089360000E0,-1.066448520E0,7.188033365E-1,6.721491337E-2,1.287830939E0
5.099441000E0,9.599549353E-1,1.331045699E0,1.991956338E0,2.580908016E0
5.109523000E0,3.415824101E0,1.912375002E0,4.441904613E0,5.920772672E0
5.119604000E0,5.739502923E0,2.020817902E0,7.392107915E0,9.574385528E0
5.129686000E0,8.064458193E0,1.650378080E0,1.071641900E1,1.351298893E1
5.139767000E0,1.009974240E1,5.762861527E-1,1.426685770E1,1.748942912E1
5.149849000E0,1.127938307E1,-4.160805568E-1,1.705628479E1,2.045273714E1
5.159930000E0,1.281924147E1,-1.095620717E0,1.904269270E1,2.298167709E1
5.170012000E0,1.469269170E1,-2.154253410E0,2.204071921E1,2.657648022E1
5.180093000E0,1.615868924E1,-3.034118740E0,2.430421849E1,2.934287223E1
5.190175000E0,1.726433223E1,-3.246212455E0,2.491797265E1,3.048770939E1
5.200256000E0,1.762585622E1,-2.798914783E0,2.485518525E1,3.059877392E1
5.210338000E0,1.707187230E1,-2.127240443E0,2.361873771E1,2.922017704E1
5.220419000E0,1.570558616E1,-1.635050920E0,2.182607494E1,2.693912351E1
5.230501000E0,1.305010358E1,-1.317181220E0,1.869289823E1,2.283559971E1
5.240582000E0,9.346434497E0,-9.407854235E-1,1.439427087E1,1.718825031E1
5.250664000E0,5.620605640E0,-4.415943341E-1,1.006650332E1,1.153779452E1
5.260745000E0,2.604743369E0,1.664365350E-1,5.745242550E0,6.310324960E0
5.270827000E0,6.405858636E-2,5.786457235E-1,1.555857546E0,1.661212533E0
5.280908000E0,-2.120499773E0,7.577304438E-1,-2.072108216E0,3.060115549E0
5.290990000E0,-3.578783078E0,9.477191980E-1,-4.564749936E0,5.877312479E0
5.301071000E0,-4.707716698E0,9.004295491E-1,-5.655638064E0,7.413475014E0
5.311153000E0,-6.063008316E0,5.937338787E-1,-6.051137298E0,8.586550667E0
5.321234000E0,-7.889490205E0,-1.994192898E-2,-6.416828012E0,1.016956907E1
5.331316000E0,-9.784371069E0,-9.449579966E-1,-7.228578835E0,1.220160706E1
5.341397000E0,-1.084900929E1,-1.926512254E0,-8.095874113E0,1.367317190E1
5.351479000E0,-1.142496822E1,-2.743175907E0,-8.853524158E0,1.471189325E1
5.361560000E0,-1.181457288E1,-3.474346251E0,-8.909353373E0,1.519972999E1
5.371642000E0,-1.240838569E1,-3.749627025E0,-8.878982350E0,1.571190841E1
5.381723000E0,-1.290365655E1,-3.866018776E0,-9.091552028E0,1.625136215E1
5.391805000E0,-1.304478027E1,-3.977130491E0,-8.596784613E0,1.612105967E1
5.401886000E0,-1.282049043E1,-3.991203277E0,-8.274770846E0,1.577233372E1
5.411968000E0,-1.236107002E1,-4.066001445E0,-7.870530024E0,1.520768433E1
5.422049000E0,-1.178247868E1,-4.065646519E0,-7.300520053E0,1.444485647E1
5.432131000E0,-1.123764682E1,-3.930561804E0,-6.714714999E0,1.366826323E1
5.442213000E0,-1.080566622E1,-3.747815265E0,-6.319508709E0,1.306693277E1
5.452294000E0,-1.025935501E1,-3.611921880E0,-5.998816413E0,1.242119734E1
5.462376000E0,-9.840005572E0,-3.490517018E0,-5.735197034E0,1.191225855E1
5.472457000E0,-9.502346410E0,-3.369642207E0,-5.666140832E0,1.156521629E1
5.482539000E0,-9.297676905E0,-3.204874687E0,-5.544072019E0,1.128958600E1
5.492620000E0,-9.097709731E0,-3.016709533E0,-5.537410871E0,1.106940730E1
5.502702000E0,-8.784929886E0,-2.803184420E0,-5.641995340E0,1.081040922E1
5.512783000E0,-8.442693524E0,-2.512552951E0,-5.510478011E0,1.039025333E1
5.522864375E0,-8.091105124E0,-2.161496356E0,-5.155539742E0,9.834512630E0
5.532945375E0,-7.955853764E0,-1.735561779E0,-4.746449824E0,9.425315365E0
5.543027375E0,-7.710582948E0,-1.305704013E0,-4.303460088E0,8.926237791E0
5.553108375E0,-7.219032671E0,-1.107190895E0,-4.084943792E0,8.368217861E0
5.563190375E0,-6.465054093E0,-1.047598412E0,-3.641538904E0,7.493676831E0
5.573271375E0,-5.566261033E0,-8.919344218E-1,-2.999511117E0,6.385599099E0
5.583353375E0,-4.866653960E0,-8.004120483E-1,-2.331398317E0,5.455309187E0
5.593434375E0,-3.945906360E0,-5.613115065E-1,-1.534578944E0,4.270852390E0
5.603516375E0,-1.872094849E0,-1.665740177E-2,-3.675167996E-1,1.907900729E0
5.613597375E0,1.098625748E0,5.583979851E-1,1.181062133E0,1.706954775E0
5.623679375E0,4.680769805E0,1.217448479E0,3.227273616E0,5.814385759E0
5.633760375E0,9.075833543E0,1.413257990E0,5.467850055E0,1.068950125E1
5.643842375E0,1.367177019E1,5.783141863E-1,7.917283190E0,1.580933650E1
5.653923375E0,1.814942059E1,-6.253199530E-1,1.088082165E1,2.117037488E1
5.664005375E0,2.213919100E1,-1.483182211E0,1.367431490E1,2.606396930E1
5.674086375E0,2.635661224E1,-2.714418424E0,1.609656608E1,3.100223404E1
5.684168375E0,2.953005755E1,-4.020875558E0,1.814787458E1,3.489322415E1
5.694249375E0,3.085659198E1,-3.907240184E0,1.873217983E1,3.630826842E1
5.704331375E0,3.053838183E1,-3.160028297E0,1.828261197E1,3.573279228E1
5.714412375E0,2.877179998E1,-2.615252278E0,1.689218151E1,3.346642818E1
5.724494375E0,2.619236863E1,-1.887389704E0,1.509796222E1,3.029110228E1
5.734575375E0,2.276538336E1,-1.036737428E0,1.336846693E1,2.642070045E1
5.744657375E0,1.805767426E1,-1.554993913E-1,1.111962077E1,2.120730407E1
5.754738375E0,1.263834733E1,1.069384041E0,8.306795461E0,1.516160467E1
5.764820375E0,7.681410019E0,2.547100348E0,5.237079164E0,9.639438689E0
5.774901375E0,3.631282303E0,3.457899495E0,2.360050843E0,5.541941904E0
5.784983375E0,-5.896332264E-3,3.382875333E0,-2.225017583E-1,3.390189865E0
5.795064375E0,-3.252311393E0,2.762216780E0,-2.581057468E0,4.986905713E0
5.805146375E0,-5.946933483E0,2.234508199E0,-4.355864004E0,7.702765476E0
5.815227375E0,-8.199397312E0,1.793374077E0,-5.574494498E0,1.007577768E1
5.825309375E0,-1.007569046E1,1.007100743E0,-6.455082836E0,1.200840891E1
5.835390375E0,-1.139583271E1,4.614586048E-1,-6.910509599E0,1.333540739E1
5.845472375E0,-1.242129167E1,-1.406226128E-1,-7.264246851E0,1.439018915E1
5.855553375E0,-1.351201490E1,-8.972324377E-1,-7.401392709E0,1.543243943E1
5.865635375E0,-1.397676797E1,-1.457950744E0,-7.335230879E0,1.585185401E1
5.875716375E0,-1.435686155E1,-2.011012706E0,-6.971888407E0,1.608635675E1
5.885798375E0,-1.424814310E1,-2.426750324E0,-6.456147029E0,1.582973573E1
5.895879375E0,-1.419718111E1,-2.669173546E0,-5.903263553E0,1.560554259E1
5.905961375E0,-1.410530498E1,-2.755976924E0,-5.480899871E0,1.538165468E1
5.916042375E0,-1.383193829E1,-2.678308651E0,-5.094341029E0,1.498159419E1
5.926124375E0,-1.338958122E1,-2.542352116E0,-4.666948156E0,1.440572264E1
5.936205375E0,-1.303038793E1,-2.393103399E0,-4.217621793E0,1.390346314E1
5.946287375E0,-1.257655161E1,-2.196340060E0,-3.750242444E0,1.330630973E1
5.956368375E0,-1.212685863E1,-1.938962438E0,-3.336331789E0,1.272601216E1
5.966450375E0,-1.161134822E1,-1.609419796E0,-2.938697443E0,1.208509752E1
5.976531375E0,-1.103983902E1,-1.364157751E0,-2.680815645E0,1.144227882E1
5.986613375E0,-1.057269678E1,-1.178749851E0,-2.494316947E0,1.092670972E1
5.996694375E0,-1.015266672E1,-9.583244392E-1,-2.310544807E0,1.045627297E1
6.006776375E0,-9.745257874E0,-7.383958943E-1,-2.170280921E0,1.001126360E1
6.016857375E0,-9.322424660E0,-5.068790451E-1,-2.047678549E0,9.558112541E0
6.026939375E0,-8.903098606E0,-3.339961740E-1,-1.838245318E0,9.097025013E0
6.037020375E0,-8.538670891E0,-2.850821686E-1,-1.700343999E0,8.710989734E0
6.047102375E0,-8.074284439E0,-1.741569793E-1,-1.618176586E0,8.236679872E0
6.057183375E0,-7.350335407E0,5.384715512E-2,-1.314505242E0,7.467144979E0
6.067265375E0,-6.528601633E0,3.331815107E-1,-8.927520087E-1,6.597776546E0
6.077346375E0,-5.684894607E0,5.168140492E-1,-6.157287651E-1,5.741449762E0
6.087428375E0,-4.735682176E0,6.021676102E-1,-3.505394089E-1,4.786665790E0
6.097509375E0,-3.292495798E0,7.391471153E-1,1.563323271E-1,3.378062586E0
6.107591375E0,-1.672613579E0,1.094700366E0,1.084714052E0,2.274337189E0
6.117672375E0,8.266150296E-2,1.575087723E0,2.042475404E0,2.580589087E0
6.127754375E0,2.280864340E0,1.833341989E0,2.864443944E0,4.094938839E0
6.137835375E0,4.795754716E0,1.814624029E0,4.209223437E0,6.633979620E0
6.147917375E0,8.261293598E0,1.455260440E0,6.087830331E0,1.036476884E1
6.157998375E0,1.254186710E1,4.112098262E-1,7.968540468E0,1.486489694E1
6.168080375E0,1.604794648E1,-1.217656932E0,1.034719890E1,1.913331649E1
6.178161375E0,1.819949146E1,-2.793499092E0,1.315044063E1,2.262651576E1
6.188243375E0,2.009783914E1,-3.918967068E0,1.521694487E1,2.551150431E1
6.198324375E0,2.225105993E1,-4.390558166E0,1.679415528E1,2.822109709E1
6.208406375E0,2.396243704E1,-3.825336188E0,1.845359508E1,3.048551718E1
6.218487375E0,2.500994702E1,-2.622470958E0,1.915687362E1,3.161266535E1
6.228569375E0,2.512015768E1,-1.746516538E0,1.883019553E1,3.144278781E1
6.238650375E0,2.406228410E1,-1.485978057E0,1.783270498E1,2.998678065E1
6.248732375E0,2.172602674E1,-1.431602167E0,1.656236347E1,2.735656423E1
6.258813375E0,1.824094822E1,-9.706486887E-1,1.478968064E1,2.350338283E1
6.268895375E0,1.410951380E1,1.709880808E-1,1.255149746E1,1.888511862E1
6.278976375E0,1.004725428E1,1.502551112E0,9.938049345E0,1.421160805E1
6.289058375E0,6.358915434E0,2.539397518E0,7.066563599E0,9.839749304E0
6.299139375E0,2.944455489E0,3.210709623E0,4.173262476E0,6.032793226E0
6.309221375E0,1.875202060E-1,3.876273915E0,1.166646407E0,4.052373025E0
6.319302375E0,-1.826963700E0,4.636551113E0,-1.448825433E0,5.189845636E0
6.329384375E0,-2.845707126E0,5.232727082E0,-3.595678023E0,6.957613255E0
6.339465375E0,-3.373307827E0,5.081483586E0,-4.919175990E0,7.835749712E0
6.349547375E0,-3.870439271E0,4.798098572E0,-6.206443439E0,8.747684849E0
6.359628375E0,-3.878621864E0,4.731042995E0,-7.322521956E0,9.541792451E0
6.369710375E0,-3.674441187E0,4.666473362E0,-8.196041011E0,1.012188618E1
6.379791375E0,-3.484883226E0,4.424251285E0,-8.927969738E0,1.055590139E1
6.389873375E0,-3.208616905E0,4.107869848E0,-9.281621620E0,1.064510766E1
6.399954375E0,-3.053125407E0,3.784313877E0,-9.722927942E0,1.087096748E1
6.410036375E0,-3.073367006E0,3.541569643E0,-9.974617832E0,1.102185561E1
6.420117375E0,-3.008608508E0,3.439507079E0,-1.010625737E1,1.109136475E1
6.430199375E0,-2.727755923E0,3.140924858E0,-1.026422691E1,1.107521627E1
6.440280375E0,-2.553001358E0,2.722399288E0,-1.042576092E1,1.107365182E1
6.450362375E0,-2.427307856E0,2.209590582E0,-1.046240426E1,1.096521850E1
6.460443375E0,-2.242578234E0,1.686959138E0,-1.033881634E1,1.071289464E1
6.470525375E0,-2.156956578E0,1.183410667E0,-1.015640426E1,1.045014210E1
6.480606375E0,-2.077950754E0,8.358795773E-1,-1.011175141E1,1.035683787E1
6.490688375E0,-2.049250866E0,5.757862888E-1,-1.008983371E1,1.031192044E1
6.500769375E0,-2.010197605E0,3.317243846E-1,-9.887728207E0,1.009544970E1
6.510851375E0,-1.908532066E0,1.608520786E-1,-9.656926911E0,9.845029477E0
6.520932292E0,-1.939285058E0,-1.727801062E-1,-9.614689549E0,9.809838664E0
6.531014292E0,-1.737109683E0,-4.981783882E-1,-9.538000976E0,9.707687386E0
6.541095292E0,-1.473857802E0,-6.585759920E-1,-9.235768340E0,9.375787753E0
6.551177292E0,-1.300776126E0,-7.818499160E-1,-8.903865176E0,9.032282264E0
6.561258292E0,-1.172568175E0,-9.189984056E-1,-8.740316216E0,8.866374780E0
6.571339292E0,-8.877035227E-1,-9.966709180E-1,-8.398674515E0,8.504063974E0
6.581421292E0,-5.729629607E-1,-9.904483111E-1,-7.718843309E0,7.803192708E0
6.591502292E0,-1.421598458E-1,-1.004563490E0,-6.746216288E0,6.822081166E0
6.601584292E0,3.636541289E-1,-1.117675391E0,-5.330007209E0,5.458060045E0
6.611665292E0,8.424630305E-1,-1.246122932E0,-3.665294387E0,3.961937564E0
6.621747292E0,1.025022459E0,-1.212719543E0,-2.040574182E0,2.585595236E0
6.631828292E0,1.109482273E0,-9.919807202E-1,-5.654678535E-1,1.592083715E0
6.641910292E0,1.278783724E0,-6.198007661E-1,1.294556589E0,1.922320880E0
6.651991292E0,1.469114687E0,-1.271360099E-1,3.499812337E0,3.797781974E0
6.662073292E0,1.517614563E0,5.357847556E-1,5.925322174E0,6.140005060E0
6.672154292E0,1.490407615E0,1.114376392E0,8.307767853E0,8.513645301E0
6.682236292E0,1.227971274E0,1.477982574E0,1.102925088E1,1.119538838E1
6.692317292E0,4.429653966E-1,1.932897414E0,1.340853556E1,1.355437702E1
6.702399292E0,7.832359985E-2,2.280155658E0,1.530676863E1,1.547586541E1
6.712480292E0,6.621949799E-1,2.000924798E0,1.690286321E1,1.703376021E1
6.722562292E0,1.572735096E0,1.780029854E0,1.874309892E1,1.889300820E1
6.732643292E0,2.425556323E0,1.510088173E0,2.041469040E1,2.061366716E1
6.742725292E0,3.152128124E0,3.934553406E-1,2.110444901E1,2.134217624E1
6.752806292E0,4.056362017E0,-9.978826073E-1,2.060824026E1,2.102734907E1
6.762888292E0,4.572605671E0,-2.216713368E0,1.849297257E1,1.917844038E1
6.772969292E0,4.075245308E0,-2.614602360E0,1.575513663E1,1.648235724E1
6.783051292E0,2.920362622E0,-2.038739911E0,1.270569205E1,1.319543818E1
6.793132292E0,1.539753730E0,-1.506677785E0,8.608403031E0,8.873867378E0
6.803214292E0,5.069350322E-1,-1.018400487E0,4.804368834E0,4.937214050E0
6.813295292E0,-1.053660221E-1,-1.638430756E-1,1.632320416E0,1.643902823E0
6.823377292E0,-3.340596163E-1,7.180415905E-1,-1.143148786E0,1.390672032E0
6.833458292E0,-4.060825489E-1,1.344282334E0,-3.469785131E0,3.743181385E0
6.843540292E0,-3.049410671E-1,1.631672544E0,-5.332758908E0,5.585128640E0
6.853621292E0,-1.523620677E-1,1.588044861E0,-6.734579160E0,6.920957819E0
6.863703292E0,-1.337354699E-1,1.455007256E0,-7.878541878E0,8.012886710E0
6.873784292E0,-3.330726794E-1,1.458882352E0,-8.544990562E0,8.675029615E0
6.883866292E0,-5.192426902E-1,1.285247821E0,-9.045191794E0,9.150790650E0
6.893947292E0,-7.590902138E-1,7.589411098E-1,-9.483930604E0,9.544482661E0
6.904029292E0,-9.329880153E-1,2.517425144E-1,-9.960493298E0,1.000726075E1
6.914110292E0,-1.136017668E0,-1.599336272E-1,-1.034239600E1,1.040582865E1
6.924191292E0,-1.195592171E0,-6.261333007E-1,-1.065065653E1,1.073582638E1
6.934273292E0,-1.303021749E0,-1.131093582E0,-1.089046722E1,1.102631011E1
6.944354292E0,-1.382815923E0,-1.573557068E0,-1.108129812E1,1.127756311E1
6.954436292E0,-1.391358998E0,-1.877386580E0,-1.114441647E1,1.138676770E1
6.964517292E0,-1.412421546E0,-2.122442803E0,-1.097232590E1,1.126461867E1
6.974599292E0,-1.559257556E0,-2.272471831E0,-1.077311711E1,1.112004787E1
6.984680292E0,-1.554120192E0,-2.306895559E0,-1.057395042E1,1.093368575E1
6.994762292E0,-1.548382612E0,-2.353990204E0,-1.019571977E1,1.057787598E1
7.004843292E0,-1.454244633E0,-2.601829117E0,-9.911740383E0,1.035021447E1
7.014925292E0,-1.285039953E0,-2.856119848E0,-9.560145552E0,1.006007610E1
7.025006292E0,-1.236840623E0,-3.048555516E0,-9.199920230E0,9.770465582E0
7.035088292E0,-1.162454100E0,-3.131653513E0,-8.829662840E0,9.440418377E0
7.045169292E0,-1.036159212E0,-3.126011535E0,-8.523479825E0,9.137575299E0
7.055251292E0,-9.997222144E-1,-3.152385401E0,-8.325179692E0,8.957990574E0
7.065332292E0,-9.430683227E-1,-3.139582922E0,-8.266503468E0,8.892774503E0
7.075414292E0,-7.784214011E-1,-3.126102751E0,-8.317899908E0,8.919972936E0
7.085495292E0,-6.172795198E-1,-3.142844792E0,-8.391282465E0,8.981766463E0
7.095577292E0,-3.884449346E-1,-3.152797630E0,-8.631688398E0,9.197666386E0
7.105658292E0,-1.734770943E-1,-3.073937986E0,-8.681503751E0,9.211280933E0
7.115740292E0,-2.650418602E-1,-3.080804957E0,-8.720288333E0,9.252298902E0
7.125821292E0,-1.060574188E-1,-2.981134196E0,-8.829891466E0,9.320160545E0
7.135903292E0,1.744079711E-1,-2.832743849E0,-8.645377314E0,9.099307927E0
7.145984292E0,9.978247198E-1,-2.882481435E0,-7.956357209E0,8.521031242E0
7.156065292E0,1.667777347E0,-2.762146906E0,-5.476565915E0,6.356391353E0
7.166147292E0,1.201332602E0,-2.220879216E0,-2.410900569E-1,2.536459921E0
7.176228292E0,2.180817018E-1,-1.348027622E0,5.672728305E0,5.834773734E0
7.186310292E0,1.192730836E0,-2.663523674E-1,1.211357843E1,1.217507014E1
7.196391292E0,4.521491358E0,-3.688409016E-1,2.061080368E1,2.110415020E1
7.206473292E0,9.972358468E0,-2.349567662E0,2.790049469E1,2.972214671E1
7.216554292E0,1.688196292E1,-5.434006956E0,3.121952164E1,3.590525915E1
7.226636292E0,2.244198790E1,-7.147301953E0,3.161590439E1,3.942451212E1
7.236717292E0,2.114735822E1,-4.768712513E0,2.935129648E1,3.648903922E1
7.246799292E0,1.595432204E1,-9.436913435E-1,2.439036903E1,2.916026485E1
7.256880292E0,1.289488807E1,1.338765486E0,1.956728150E1,2.347230148E1
7.266962292E0,9.550623946E0,3.008406779E0,1.615747302E1,1.900865233E1
7.277043292E0,5.593044789E0,4.547136661E0,1.211682013E1,1.409879186E1
7.287125292E0,2.307663299E0,5.810408599E0,8.679861268E0,1.069701592E1
7.297206292E0,1.781617373E-1,6.369373764E0,6.232768773E0,8.913364704E0
7.307288292E0,-1.206240828E0,6.536179039E0,4.309171649E0,7.921212891E0
7.317369292E0,-2.214027157E0,6.372378649E0,2.851861321E0,7.324086215E0
7.327451292E0,-3.360488391E0,5.790701144E0,1.648347634E0,6.895081717E0
7.337532292E0,-4.725850083E0,5.497336394E0,2.955714887E-1,7.255462008E0
7.347614292E0,-6.051253073E0,5.543298433E0,-1.293124605E0,8.307706815E0
7.357695292E0,-7.091217214E0,5.403202069E0,-2.869448576E0,9.365558676E0
7.367777292E0,-7.735064655E0,5.049774721E0,-4.238143181E0,1.016333152E1
7.377858292E0,-8.100257771E0,4.633327836E0,-5.397012792E0,1.078005797E1
7.387939292E0,-8.074846357E0,4.259623220E0,-6.412122758E0,1.115629203E1
7.398021292E0,-8.097911868E0,3.928579013E0,-7.047660136E0,1.143151010E1
7.408102292E0,-7.961330266E0,3.612534376E0,-7.393194913E0,1.144956398E1
7.418184292E0,-7.603963648E0,3.259835882E0,-7.654262567E0,1.127095952E1
7.428265292E0,-7.241964281E0,3.004254963E0,-7.726742898E0,1.100791308E1
7.438347292E0,-6.553789684E0,3.337351251E0,-7.519378996E0,1.051813354E1
7.448428292E0,-5.764920770E0,3.905262656E0,-7.127170574E0,9.964032732E0
7.458510292E0,-5.066639260E0,3.869352566E0,-6.694890014E0,9.244689014E0
7.468591292E0,-4.603308815E0,3.957046475E0,-6.380830214E0,8.807023508E0
7.478673292E0,-4.704407759E0,4.034184990E0,-6.223466438E0,8.782803391E0
7.488754292E0,-4.703479221E0,3.799557568E0,-5.915950842E0,8.459186064E0
7.498836292E0,-4.662061054E0,3.495140412E0,-5.581248032E0,8.068528327E0
7.508917292E0,-4.767653582E0,3.214474061E0,-5.191693661E0,7.747067009E0
7.518999667E0,-4.786051261E0,3.038306808E0,-4.751605899E0,7.396982733E0
7.529080667E0,-4.890032882E0,2.765374862E0,-4.569532959E0,7.241571043E0
7.539162667E0,-4.862476124E0,2.084178624E0,-4.463929905E0,6.922004391E0
7.549243667E0,-4.287710028E0,1.871629119E0,-3.804124829E0,6.029827407E0
7.559325667E0,-4.802284886E0,1.619451864E0,-3.655899081E0,6.249012927E0
7.569406667E0,-4.583489678E0,1.680614324E0,-3.056964104E0,5.760023582E0
7.579487667E0,-4.151949375E0,1.440736395E0,-2.643289969E0,5.128487773E0
7.589569667E0,-3.851480843E0,1.086709414E0,-2.354171467E0,4.642947914E0
7.599650667E0,-3.305266702E0,8.763705955E-1,-1.874806788E0,3.899706897E0
7.609732667E0,-2.445285121E0,6.646576810E-1,-8.888200486E-1,2.685365940E0
7.619813667E0,-1.321673051E0,4.801148772E-1,6.344000942E-1,1.542657911E0
7.629895667E0,3.309988913E-1,1.855697210E-1,2.463208591E0,2.492266629E0
7.639976667E0,2.315728071E0,-6.076176538E-1,5.215242153E0,5.738514305E0
7.650058667E0,4.338910587E0,-1.933694535E0,8.436587276E0,9.682010355E0
7.660139667E0,6.575900930E0,-3.519234449E0,1.205408068E1,1.417491958E1
7.670221667E0,8.316278476E0,-4.622818927E0,1.620590901E1,1.879261636E1
7.680302667E0,1.039596001E1,-5.388917322E0,1.971358586E1,2.292906194E1
7.690384667E0,1.279884638E1,-6.550791231E0,2.315308650E1,2.725415104E1
7.700465667E0,1.459153487E1,-7.497968831E0,2.539860676E1,3.023609849E1
7.710547667E0,1.628550599E1,-8.001515256E0,2.573695005E1,3.149019768E1
7.720628667E0,1.733653014E1,-8.084283178E0,2.513160886E1,3.158336074E1
7.730710667E0,1.689308315E1,-7.310687191E0,2.329485108E1,2.968960243E1
7.740791667E0,1.508605612E1,-6.131031899E0,2.066768071E1,2.631219617E1
7.750872667E0,1.236745284E1,-4.974177239E0,1.722584001E1,2.178131982E1
7.760954667E0,9.152079481E0,-3.625346210E0,1.274529524E1,1.610423065E1
7.771035667E0,5.909206079E0,-2.281371732E0,8.091875787E0,1.027627497E1
7.781117667E0,3.277122883E0,-1.095608730E0,4.112059085E0,5.371119325E0
7.791198667E0,1.188069436E0,-2.705622165E-1,8.051463926E-1,1.460470339E0
7.801280667E0,-6.970971563E-1,4.148391929E-1,-2.139545324E0,2.288163061E0
7.811361667E0,-1.951438350E0,1.027882770E0,-4.638428947E0,5.136115041E0
7.821443667E0,-2.707709036E0,1.270079851E0,-6.652702353E0,7.294055090E0
7.831524667E0,-3.086515932E0,1.076092844E0,-8.438897511E0,9.049836883E0
7.841606667E0,-3.225236738E0,8.249301544E-1,-1.014273113E1,1.067509515E1
7.851687667E0,-3.170131408E0,6.636613154E-1,-1.157511770E1,1.201971419E1
7.861769667E0,-3.161301528E0,5.435329742E-1,-1.267195712E1,1.307163925E1
7.871850667E0,-3.284839161E0,4.539317764E-1,-1.357460350E1,1.397376408E1
7.881932667E0,-3.414638870E0,2.850017694E-1,-1.428273406E1,1.468800452E1
7.892013667E0,-3.640674393E0,1.152082747E-1,-1.465926902E1,1.510503066E1
7.902094667E0,-3.831909336E0,4.105213165E-2,-1.486658439E1,1.535254200E1
7.912176667E0,-3.928490428E0,-6.315943077E-2,-1.506413491E1,1.556808231E1
7.922257667E0,-4.061574810E0,-2.409576175E-1,-1.504708209E1,1.558746708E1
7.932339667E0,-4.067151592E0,-4.098629200E-1,-1.474798297E1,1.530400965E1
7.942420667E0,-4.043337637E0,-5.823965661E-1,-1.425315884E1,1.482701258E1
7.952502667E0,-3.985067209E0,-7.502550709E-1,-1.365535121E1,1.424472744E1
7.962583667E0,-3.848157871E0,-8.799333040E-1,-1.304284367E1,1.362711902E1
7.972665667E0,-3.663096419E0,-9.828768978E-1,-1.247123157E1,1.303518082E1
7.982746667E0,-3.567940586E0,-1.070401822E0,-1.198789721E1,1.255331190E1
7.992828667E0,-3.410363094E0,-1.169004297E0,-1.156282451E1,1.211181482E1
8.002909667E0,-3.173443564E0,-1.192701454E0,-1.116906132E1,1.167224107E1
8.012991667E0,-2.975422635E0,-1.208974767E0,-1.081220107E1,1.127911574E1
8.023072667E0,-2.925829183E0,-1.091836984E0,-1.048796127E1,1.094303047E1
8.033153667E0,-2.849054365E0,-8.636906160E-1,-1.027593889E1,1.069850421E1
8.043235667E0,-2.620202238E0,-6.333089306E-1,-9.971060386E0,1.032901666E1
8.053316667E0,-2.426211503E0,-4.935604034E-1,-9.579551291E0,9.894337121E0
8.063398667E0,-2.350556426E0,-3.116161023E-1,-9.067771402E0,9.372656950E0
8.073479667E0,-2.217725813E0,1.646750431E-2,-8.381435169E0,8.669892413E0
8.083561667E0,-1.960209466E0,3.314057113E-1,-7.572873418E0,7.829473973E0
8.093642667E0,-1.525435068E0,4.697119497E-1,-6.547054276E0,6.738805618E0
8.103724667E0,-7.786962202E-1,5.581814189E-1,-4.829267448E0,4.923388912E0
8.113805667E0,2.504128575E-1,3.661257470E-1,-2.296580486E0,2.339024710E0
8.123887667E0,1.486277727E0,7.175856538E-2,9.024025458E-1,1.740258925E0
8.133968667E0,3.355483759E0,-3.613297876E-1,5.425913240E0,6.389864236E0
8.144050667E0,5.675843117E0,-1.570066280E0,1.155068452E1,1.296528504E1
8.154131667E0,7.512148329E0,-2.975515021E0,1.897511059E1,2.062379412E1
8.164212667E0,9.472994556E0,-3.788346994E0,2.708297909E1,2.894092181E1
8.174294667E0,1.341968386E1,-5.491605538E0,3.402110509E1,3.698217460E1
8.184375667E0,1.707631969E1,-8.405278360E0,3.886770076E1,4.327756418E1
8.194457667E0,1.904582096E1,-9.892207174E0,4.051283126E1,4.584635815E1
8.204538667E0,1.897043749E1,-8.902522071E0,3.901871563E1,4.428986981E1
8.214620667E0,1.719912408E1,-7.654111708E0,3.508010367E1,3.981217112E1
8.224701667E0,1.511545592E1,-6.735862623E0,2.996574529E1,3.423148760E1
8.234783667E0,1.202249753E1,-5.670461925E0,2.428101674E1,2.768144431E1
8.244864667E0,8.260703614E0,-4.052755162E0,1.764103208E1,1.989648365E1
8.254946667E0,4.879834461E0,-1.953364715E0,1.141831175E1,1.257005415E1
8.265027667E0,2.100433883E0,-5.490403935E-2,6.528002293E0,6.857816773E0
8.275109667E0,8.823448420E-2,1.195818897E0,2.763930307E0,3.012819095E0
8.285190667E0,-1.181672582E0,1.949982101E0,-5.884497499E-1,2.354793705E0
8.295272667E0,-1.983098684E0,2.014199585E0,-3.703367363E0,4.658820686E0
8.305353667E0,-2.467517112E0,1.367427367E0,-6.344910184E0,6.943801807E0
8.315434667E0,-3.168940623E0,9.897511768E-1,-8.597853484E0,9.216554486E0
8.325516667E0,-3.781480901E0,7.045055786E-1,-1.047927698E1,1.116293743E1
8.335597667E0,-4.071582612E0,2.164275245E-1,-1.207217430E1,1.274213554E1
8.345679667E0,-4.130404432E0,-3.310751244E-1,-1.336283138E1,1.399053659E1
8.355760667E0,-4.031800788E0,-3.994260786E-1,-1.456133751E1,1.511448011E1
8.365842667E0,-3.767423025E0,-4.095313829E-1,-1.550636918E1,1.596272776E1
8.375923667E0,-3.774035934E0,-4.984111805E-1,-1.613196279E1,1.657504100E1
8.386005667E0,-3.997978739E0,-5.280485970E-1,-1.654642980E1,1.703076653E1
8.396086667E0,-4.293312246E0,-4.204229915E-1,-1.657453971E1,1.712672333E1
8.406168667E0,-4.627539969E0,-2.595783681E-1,-1.633394199E1,1.697878582E1
8.416249667E0,-4.792525883E0,-3.406323253E-1,-1.578876280E1,1.650361674E1
8.426330667E0,-4.761986461E0,-5.836260894E-1,-1.490883637E1,1.566175394E1
8.436412667E0,-4.497279500E0,-7.126079191E-1,-1.379034588E1,1.452263655E1
8.446493667E0,-4.349369502E0,-7.500561194E-1,-1.269766733E1,1.344285516E1
8.456575667E0,-4.091021973E0,-8.618336865E-1,-1.175122063E1,1.247278655E1
8.466656667E0,-3.777360368E0,-1.029574516E0,-1.106971478E1,1.174168048E1
8.476738667E0,-3.566037317E0,-1.127551631E0,-1.055917567E1,1.120197240E1
8.486819667E0,-3.413885164E0,-1.077921342E0,-1.013725229E1,1.075083300E1
8.496901667E0,-3.238976525E0,-9.647011933E-1,-9.734545775E0,1.030451351E1
8.506982667E0,-2.737997321E0,-7.218593837E-1,-9.040126936E0,9.473204596E0
8.517064667E0,-2.840050237E0,-5.134231026E-1,-9.057639931E0,9.506331036E0
8.527149000E0,-2.795103860E0,-9.333186753E-2,-8.626218912E0,9.068239584E0
8.537230000E0,-2.710657202E0,1.389456953E-1,-8.455027640E0,8.880003422E0
8.547312000E0,-2.568878303E0,3.177793600E-1,-8.409273178E0,8.798635965E0
8.557393000E0,-2.487356422E0,5.180155789E-1,-8.214190183E0,8.598151108E0
8.567475000E0,-2.351216285E0,7.680711716E-1,-7.883029616E0,8.261979622E0
8.577556000E0,-2.165355226E0,9.376042458E-1,-7.510410537E0,7.872365045E0
8.587638000E0,-2.058011749E0,1.170254139E0,-7.119798989E0,7.503095678E0
8.597719000E0,-2.011039896E0,1.559700044E0,-6.749700644E0,7.213556992E0
8.607801000E0,-1.297965808E0,1.567341478E0,-5.632632778E0,5.988975418E0
8.617882000E0,-1.139575261E0,1.226221129E0,-4.262226693E0,4.579173115E0
8.627963000E0,6.577269763E-2,1.108056795E0,-2.859909428E0,3.067767567E0
8.638045000E0,1.860286105E0,1.674615519E-1,-3.832352847E-1,1.906718922E0
8.648126000E0,3.230017129E0,-6.557381921E-1,4.809909071E0,5.830799988E0
8.658208000E0,4.318818970E0,-8.170024994E-1,1.143224216E1,1.224809581E1
8.668289000E0,5.800570074E0,-7.467990741E-1,1.935205017E1,2.021648258E1
8.678371000E0,9.096547304E0,-1.390401809E0,2.768234676E1,2.917177938E1
8.688452000E0,1.278463999E1,-3.500190067E0,3.533453006E1,3.773893698E1
8.698534000E0,1.625035487E1,-5.997479739E0,3.892192784E1,4.260235045E1
8.708615000E0,1.969676692E1,-7.062044286E0,4.026145712E1,4.537422204E1
8.718697000E0,2.092902786E1,-6.214405593E0,3.904444572E1,4.473378797E1
8.728778000E0,1.834120458E1,-5.500717254E0,3.396310773E1,3.898910569E1
8.738859000E0,1.600481157E1,-4.477446037E0,2.877679351E1,3.323109028E1
8.748941000E0,1.253219113E1,-3.196600292E0,2.280095314E1,2.621368978E1
8.759022000E0,7.907989041E0,-1.035824459E0,1.585335465E1,1.774649477E1
8.769104000E0,4.449361567E0,6.522376102E-1,1.059005365E1,1.150528003E1
8.779185000E0,1.660820037E0,8.982179859E-1,6.183952709E0,6.465786097E0
8.789267000E0,-1.226096803E-1,1.692653887E0,2.171260037E0,2.755808495E0
8.799348000E0,-1.250805090E0,2.327984712E0,-1.109520280E0,2.866192848E0
8.809430000E0,-1.897452762E0,2.245410479E0,-4.009717609E0,4.971924225E0
8.819511000E0,-2.294679849E0,1.737184089E0,-6.578342142E0,7.180386446E0
8.829593000E0,-2.475670469E0,9.876067836E-1,-8.756774374E0,9.153436997E0
8.839674000E0,-2.789183554E0,4.992005911E-1,-1.044861418E1,1.082600039E1
8.849755000E0,-2.889728182E0,2.689187469E-1,-1.192542673E1,1.227349375E1
8.859837000E0,-3.021252527E0,-2.351978177E-1,-1.308784618E1,1.343409850E1
8.869918000E0,-3.038339261E0,-6.896048266E-1,-1.426185950E1,1.459820868E1
8.880000000E0,-3.108817505E0,-1.044382297E0,-1.484318266E1,1.520116943E1
8.890081000E0,-3.159296810E0,-1.252656611E0,-1.535379779E1,1.572543835E1
8.900163000E0,-3.163420267E0,-1.328736341E0,-1.578211920E1,1.615079114E1
8.910244000E0,-3.184801780E0,-1.329652746E0,-1.605140453E1,1.641823761E1
8.920326000E0,-3.280948132E0,-1.305339000E0,-1.620091549E1,1.658126031E1
8.930407000E0,-3.215769219E0,-1.312091950E0,-1.601781812E1,1.639003521E1
8.940488000E0,-3.225634349E0,-1.291314454E0,-1.555190262E1,1.593530311E1
8.950570000E0,-3.277393025E0,-1.334008630E0,-1.500690236E1,1.541843061E1
8.960651000E0,-3.249900001E0,-1.375660686E0,-1.448244922E1,1.490622781E1
8.970733000E0,-3.166045666E0,-1.395282918E0,-1.383728849E1,1.426328196E1
8.980814000E0,-3.106046802E0,-1.330307781E0,-1.316655789E1,1.359321493E1
8.990896000E0,-3.042395474E0,-1.235791048E0,-1.257667791E1,1.299831439E1
9.000977000E0,-2.961705945E0,-1.166830814E0,-1.204014910E1,1.245385027E1
9.011059000E0,-2.883862840E0,-1.142813522E0,-1.154865086E1,1.195801089E1
9.021140000E0,-2.856857767E0,-1.085871289E0,-1.103209614E1,1.144761538E1
9.031221000E0,-2.872492636E0,-9.917265125E-1,-1.067003888E1,1.109434384E1
9.041303000E0,-2.964329590E0,-9.222216102E-1,-1.036331383E1,1.081831855E1
9.051384000E0,-3.036553228E0,-8.991559524E-1,-1.004841203E1,1.053564053E1
9.061466000E0,-3.078707560E0,-8.452161920E-1,-9.685832037E0,1.019843973E1
9.071547000E0,-3.076536781E0,-6.809418842E-1,-9.294986601E0,9.814557368E0
9.081629000E0,-3.134846970E0,-4.497937019E-1,-8.934525636E0,9.479205043E0
9.091710000E0,-3.089629574E0,-2.323391140E-1,-8.039387087E0,8.615772577E0
9.101792000E0,-2.968093735E0,-3.851604804E-2,-6.991411090E0,7.595452122E0
9.111873000E0,-2.892082563E0,1.641135094E-1,-5.755887991E0,6.443704010E0
9.121954000E0,-2.120013577E0,1.217152025E-1,-3.908145626E0,4.447794328E0
9.132036000E0,-2.008340237E-1,-5.799737723E-1,-6.337095380E-1,8.822083995E-1
9.142117000E0,2.196781379E0,-1.908677662E0,4.833826522E0,5.642231623E0
9.152199000E0,4.759790246E0,-3.389644362E0,1.176941951E1,1.314018750E1
9.162280000E0,7.704940969E0,-5.084639329E0,1.826407747E1,2.046451070E1
9.172362000E0,1.036585152E1,-6.862185870E0,2.603570535E1,2.885131584E1
9.182443000E0,1.216698456E1,-7.933123882E0,3.351901404E1,3.653073049E1
9.192525000E0,1.517389416E1,-8.804375387E0,3.795506500E1,4.181328795E1
9.202606000E0,1.870615972E1,-9.783492233E0,4.055335480E1,4.571883329E1
9.212687000E0,1.991674386E1,-8.898393352E0,4.000331892E1,4.556449950E1
9.222769000E0,1.856923898E1,-6.729830636E0,3.668935565E1,4.166792621E1
9.232850000E0,1.611946612E1,-5.123499339E0,3.245162587E1,3.659501954E1
9.242932000E0,1.404744444E1,-4.785730834E0,2.801647772E1,3.170421011E1
9.253013000E0,1.129834209E1,-4.555399654E0,2.276452733E1,2.581913834E1
9.263095000E0,8.123953028E0,-3.170311210E0,1.697925942E1,1.908781644E1
9.273176000E0,5.173165004E0,-1.216922375E0,1.106229350E1,1.227260664E1
9.283258000E0,2.871338688E0,1.099402258E0,5.441532322E0,6.250083616E0
9.293339000E0,1.060484652E0,3.741304682E0,6.973120415E-1,3.950725567E0
9.303420000E0,3.828593087E-1,4.564259940E0,-1.943572968E0,4.975593023E0
9.313502000E0,-3.500622761E-1,4.580175184E0,-5.319362937E0,7.028240916E0
9.323583000E0,-1.742461201E0,7.671249897E0,-8.583507341E0,1.164305992E1
9.333665000E0,-2.681272897E0,4.748877003E0,-9.622482133E0,1.106043487E1
9.343746000E0,-2.741884257E0,2.089726462E0,-1.117289709E1,1.169266930E1
9.353828000E0,-1.850993418E0,8.790139756E-1,-1.191523737E1,1.209014987E1
9.363909000E0,-2.990847298E0,-4.867121445E-1,-1.262611261E1,1.298463615E1
9.373991000E0,-5.264940562E0,-2.732222318E0,-1.408245055E1,1.528070847E1
9.384072000E0,-8.487421800E0,-3.899631495E0,-1.621260057E1,1.871074215E1
9.394153000E0,-8.482340569E0,-2.904014391E0,-1.693197415E1,1.915920536E1
9.404235000E0,-7.912207807E0,-2.722471502E0,-1.581356084E1,1.789088008E1
9.414316000E0,-8.054510325E0,-3.394183556E0,-1.567707514E1,1.794899171E1
9.424398000E0,-7.859729047E0,-3.319594426E0,-1.610905339E1,1.822900571E1
9.434479000E0,-7.779950806E0,-3.255194947E0,-1.586673659E1,1.796878568E1
9.444561000E0,-7.422457888E0,-3.268270199E0,-1.501682976E1,1.706691675E1
9.454642000E0,-7.006395750E0,-3.249458537E0,-1.431084864E1,1.626188645E1
9.464724000E0,-6.481989968E0,-3.270120258E0,-1.353426122E1,1.535858415E1
9.474805000E0,-6.024210286E0,-3.169052305E0,-1.264379576E1,1.435965088E1
9.484886000E0,-5.736146622E0,-2.916497027E0,-1.188502949E1,1.351529722E1
9.494968000E0,-5.439381132E0,-2.624379781E0,-1.123870867E1,1.275863664E1
9.505049000E0,-5.123709254E0,-2.379194334E0,-1.067562882E1,1.207816265E1
9.515131000E0,-4.886511396E0,-2.170180641E0,-1.019833347E1,1.151493305E1
9.525207542E0,-4.713114263E0,-1.949699680E0,-9.790631683E0,1.103953095E1
9.535289542E0,-4.601890281E0,-1.746408364E0,-9.384275923E0,1.059679060E1
9.545370542E0,-4.531695919E0,-1.579352828E0,-9.107304427E0,1.029434880E1
9.555451542E0,-4.427399426E0,-1.383332233E0,-8.860325639E0,1.000104215E1
9.565533542E0,-4.325653780E0,-1.130132957E0,-8.620389238E0,9.710797688E0
9.575614542E0,-4.199766151E0,-8.513139609E-1,-8.327485249E0,9.365350060E0
9.585696542E0,-4.047737667E0,-5.265898994E-1,-7.893397899E0,8.886349506E0
9.595777542E0,-3.977236326E0,-9.277660131E-2,-7.424697372E0,8.423369121E0
9.605859542E0,-3.767431796E0,3.929252905E-1,-6.813523588E0,7.795642135E0
9.615940542E0,-3.084488118E0,7.019542922E-1,-5.697288950E0,6.516587156E0
9.626022542E0,-2.166877256E0,1.040534099E0,-3.998771621E0,4.665644943E0
9.636103542E0,-1.105710526E0,1.522408257E0,-1.298018140E0,2.285863898E0
9.646184542E0,1.398208134E0,1.139352335E0,3.089189279E0,3.577177677E0
9.656266542E0,4.614935711E0,-4.946110750E-1,9.248336930E0,1.034765711E1
9.666347542E0,6.844458282E0,-1.807476246E0,1.703251937E1,1.844506155E1
9.676429542E0,8.919291301E0,-2.454013259E0,2.521965156E1,2.686273931E1
9.686510542E0,1.211691018E1,-3.804767438E0,3.282122136E1,3.519273134E1
9.696592542E0,1.567728564E1,-5.683489521E0,3.914036111E1,4.254464955E1
9.706673542E0,1.804404791E1,-7.472754468E0,4.353231003E1,4.771259520E1
9.716754542E0,1.817626398E1,-7.591732442E0,4.352121903E1,4.777140860E1
9.726836542E0,1.649724536E1,-5.707171914E0,3.981588993E1,4.347454435E1
9.736917542E0,1.398228658E1,-4.308993016E0,3.467116812E1,3.763192339E1
9.746999542E0,1.157205727E1,-4.231331467E0,2.889874771E1,3.141582873E1
9.757080542E0,9.161810417E0,-4.118296310E0,2.303158604E1,2.512674054E1
9.767162542E0,6.461136459E0,-2.947683737E0,1.716515644E1,1.857626763E1
9.777243542E0,3.896168481E0,-1.239582383E0,1.162352563E1,1.232164930E1
9.787325542E0,1.733495081E0,2.332818313E-1,6.750872426E0,6.973786928E0
9.797406542E0,2.884256065E-1,1.024756118E0,2.560364172E0,2.772864787E0
9.807487542E0,-6.027733818E-1,9.977734105E-1,-1.152238868E0,1.639067399E0
9.817569542E0,-1.304897682E0,6.291335070E-1,-4.602669130E0,4.825259584E0
9.827650542E0,-1.878313948E0,3.406740598E-1,-7.884779688E0,8.112574982E0
9.837732542E0,-2.266473173E0,-9.440950938E-2,-1.085034830E1,1.108493898E1
9.847813542E0,-2.543479752E0,-6.855048320E-1,-1.333131255E1,1.358908019E1
9.857895542E0,-2.665807304E0,-1.138453911E0,-1.522136888E1,1.549492421E1
9.867976542E0,-2.685890443E0,-1.539600094E0,-1.635734722E1,1.664773811E1
9.878057542E0,-2.699812956E0,-1.482861783E0,-1.692665670E1,1.720463821E1
9.888139542E0,-2.700589466E0,-1.262219147E0,-1.712004634E1,1.737763986E1
9.898220542E0,-2.824554531E0,-1.041981431E0,-1.692364187E1,1.718934227E1
9.908302542E0,-2.857455352E0,-9.440002227E-1,-1.680411192E1,1.707144882E1
9.918383542E0,-2.801612688E0,-1.302401359E0,-1.654254491E1,1.682857912E1
9.928465542E0,-2.666294085E0,-1.637305167E0,-1.591053575E1,1.621527182E1
9.938546542E0,-2.738852184E0,-1.597417070E0,-1.523217453E1,1.555866940E1
9.948628542E0,-2.845141993E0,-1.620596164E0,-1.439764822E1,1.476527816E1
9.958709542E0,-2.827372012E0,-1.747164409E0,-1.352475949E1,1.392715819E1
9.968790542E0,-2.713703894E0,-1.777021169E0,-1.265442717E1,1.306355695E1
9.978872542E0,-2.624054384E0,-1.827406919E0,-1.175148376E1,1.217877038E1
9.988953542E0,-2.513198776E0,-1.825066863E0,-1.100913295E1,1.143888305E1
9.999035542E0,-2.372873787E0,-1.853207758E0,-1.045260666E1,1.087758682E1
1.000911654E1,-2.218681979E0,-1.865624905E0,-1.013901815E1,1.054527359E1
1.001919854E1,-2.090634827E0,-1.804536704E0,-1.003475294E1,1.040785152E1
1.002927954E1,-1.996746962E0,-1.606408772E0,-1.012264010E1,1.044200125E1
1.003936054E1,-1.758983094E0,-1.438021387E0,-1.025790724E1,1.050650218E1
1.004944254E1,-1.621041283E0,-1.177282346E0,-1.042120945E1,1.061203915E1
1.005952354E1,-1.671106752E0,-9.019276788E-1,-1.065281299E1,1.082074377E1
1.006960554E1,-1.779012877E0,-6.502685603E-1,-1.083567413E1,1.099998045E1
1.007968654E1,-1.888208022E0,-4.173898580E-1,-1.093242918E1,1.110214176E1
1.008976854E1,-1.897193876E0,-2.206442624E-1,-1.080981073E1,1.097725086E1
1.009984954E1,-1.870268033E0,-2.754747547E-2,-1.046150145E1,1.062740203E1
1.010993054E1,-1.762254757E0,2.022169632E-1,-9.849234817E0,1.000769004E1
1.012001254E1,-1.688685821E0,2.723826009E-1,-9.103816563E0,9.263116543E0
1.013009354E1,-1.349819793E0,4.732653757E-1,-8.089465565E0,8.214952630E0
1.014017554E1,-6.143356660E-1,8.136980917E-1,-6.820565974E0,6.896349259E0
1.015025654E1,1.595988742E-1,1.015946045E0,-4.992126437E0,5.096954437E0
1.016033854E1,1.101372477E0,8.550247501E-1,-2.257328128E0,2.653228021E0
1.017041954E1,3.041062601E0,-1.777210034E-1,1.764018424E0,3.520143108E0
1.018050054E1,6.133968371E0,-1.567166938E0,8.847167065E0,1.087905994E1
1.019058254E1,9.838155513E0,-2.622339980E0,1.832556094E1,2.096406818E1
1.020066354E1,1.381847683E1,-4.197176419E0,2.652846892E1,3.020473895E1
1.021074554E1,1.854905556E1,-8.216773483E0,3.202376873E1,3.790916238E1
1.022082654E1,2.561079754E1,-9.946353561E0,4.198428542E1,5.017492523E1
1.023090854E1,2.887079334E1,-1.151386344E1,4.424331742E1,5.406998147E1
1.024098954E1,2.650029236E1,-1.100389268E1,4.120474866E1,5.021137781E1
1.025107054E1,2.190617946E1,-9.093291575E0,3.440161382E1,4.178563968E1
1.026115254E1,1.813340857E1,-7.726263426E0,2.955247578E1,3.552273184E1
1.027123354E1,1.307044487E1,-7.029332623E0,2.310350211E1,2.745942199E1
1.028131554E1,8.305562283E0,-4.932853796E0,1.685273035E1,1.942498215E1
1.029139654E1,3.909250749E0,-2.434374362E0,1.083361825E1,1.177181823E1
1.030147854E1,1.808746700E0,-1.191645155E0,6.845423073E0,7.179930351E0
1.031155954E1,-9.901575583E-1,2.550786433E-1,2.810188800E0,2.990424417E0
1.032164054E1,-2.747366899E-1,1.442009188E0,2.492339419E0,2.892512148E0
1.033172254E1,-2.751094792E0,6.627745852E-3,-1.084950864E0,2.957310409E0
1.034180354E1,-4.272668066E0,1.282140465E0,-3.978802210E0,5.977494760E0
1.035188554E1,-4.323257006E0,1.517204820E0,-5.702329250E0,7.314986021E0
1.036196654E1,-4.364718736E0,7.481907114E-1,-7.492856026E0,8.703645811E0
1.037204854E1,-4.391026528E0,5.559535566E-1,-1.014561615E1,1.106904356E1
1.038212954E1,-5.352710778E0,7.909291801E-1,-1.172526016E1,1.291351260E1
1.039221054E1,-4.869145458E0,4.931157227E-1,-1.331198633E1,1.418311393E1
1.040229254E1,-4.619857020E0,-3.345279783E-2,-1.423696439E1,1.496781056E1
1.041237354E1,-4.683101674E0,-1.970750863E-1,-1.484536601E1,1.556776066E1
1.042245554E1,-4.839134332E0,-2.663585801E-1,-1.524742407E1,1.599912837E1
1.043253654E1,-5.167921806E0,-2.695103024E-1,-1.538332505E1,1.623042641E1
1.044261854E1,-5.476588719E0,-1.315439335E-1,-1.546354535E1,1.640522973E1
1.045269954E1,-5.666263624E0,-9.733881824E-2,-1.527268170E1,1.629020640E1
1.046278054E1,-5.773064772E0,-2.063952374E-1,-1.489039074E1,1.597168157E1
1.047286254E1,-5.808722847E0,-3.481017778E-1,-1.434840765E1,1.548351504E1
1.048294354E1,-5.773201597E0,-4.031583929E-1,-1.365664461E1,1.483227344E1
1.049302554E1,-5.698771219E0,-5.200556725E-1,-1.287251896E1,1.408716422E1
1.050310654E1,-5.594631139E0,-5.750372240E-1,-1.214115624E1,1.338051719E1
1.051318754E1,-5.514090421E0,-5.009938225E-1,-1.149322861E1,1.275737010E1
1.052326992E1,-5.369579410E0,-4.097031449E-1,-1.102213248E1,1.226734055E1
1.053335092E1,-5.161280538E0,-4.130927758E-1,-1.053971965E1,1.174287668E1
1.054343292E1,-4.978816420E0,-3.565159942E-1,-1.005953461E1,1.122986879E1
1.055351392E1,-4.815188522E0,-1.769332373E-1,-9.842036895E0,1.095824056E1
1.056359592E1,-4.728937998E0,4.379813030E-2,-9.626662307E0,1.072554894E1
1.057367692E1,-4.633861102E0,2.350555111E-1,-9.319744881E0,1.041083880E1
1.058375792E1,-4.476797580E0,4.354168604E-1,-8.985119255E0,1.004806809E1
1.059383992E1,-4.334296550E0,7.146893086E-1,-8.572408156E0,9.632397883E0
1.060392092E1,-4.180400172E0,9.422092205E-1,-8.204346980E0,9.256068992E0
1.061400292E1,-4.018871132E0,1.100735423E0,-7.706038492E0,8.760477891E0
1.062408392E1,-3.944331412E0,1.339763459E0,-7.056819214E0,8.194596624E0
1.063416592E1,-3.793388171E0,1.550055208E0,-6.579524449E0,7.751297114E0
1.064424692E1,-3.471118003E0,1.757938343E0,-6.029154106E0,7.175632840E0
1.065432792E1,-2.863853960E0,1.982702535E0,-4.972077504E0,6.070776190E0
1.066440992E1,-1.826732443E0,1.977190949E0,-3.310477155E0,4.266789714E0
1.067449092E1,9.149576873E-2,1.421662924E0,-7.914884663E-1,1.629708850E0
1.068457292E1,2.762827230E0,3.863188139E-1,3.159053566E0,4.214507796E0
1.069465392E1,6.306695706E0,-1.693390929E0,9.324594562E0,1.138376244E1
1.070473492E1,1.038195709E1,-5.198318557E0,1.729367356E1,2.082975502E1
1.071481692E1,1.436061663E1,-8.807400151E0,2.545205967E1,3.052220419E1
1.072489792E1,1.748993184E1,-1.240848626E1,3.341103234E1,3.970094872E1
1.073497992E1,2.088110174E1,-1.596470201E1,4.019496726E1,4.802632105E1
1.074506092E1,2.380304896E1,-1.759501683E1,4.307002449E1,5.226085310E1
1.075514292E1,2.327220832E1,-1.660595914E1,4.139957321E1,5.031180995E1
1.076522392E1,1.981558702E1,-1.349042815E1,3.722046995E1,4.427202869E1
1.077530492E1,1.600996531E1,-1.053333098E1,3.142877945E1,3.681084390E1
1.078538692E1,1.254419546E1,-8.965174402E0,2.424119019E1,2.872919236E1
1.079546792E1,9.240309872E0,-7.407564445E0,1.683977760E1,2.058721562E1
1.080554992E1,5.907135580E0,-4.527693792E0,1.078337897E1,1.310250067E1
1.081563092E1,2.839736534E0,-9.513723922E-1,5.823451983E0,6.548420116E0
1.082571192E1,5.344954446E-1,2.270299591E0,1.929908609E0,3.027291339E0
1.083579392E1,-1.417014241E-1,3.017346879E0,-1.132771148E0,3.226086167E0
1.084587492E1,-1.732549878E0,2.957846197E0,-4.166879656E0,5.395689879E0
1.085595692E1,-2.724984050E0,3.296432143E0,-6.919799071E0,8.134840019E0
1.086603792E1,-3.300775163E0,3.253898327E0,-8.468489685E0,9.653926069E0
1.087611992E1,-4.273539886E0,1.819997766E0,-9.630667065E0,1.069230018E1
1.088620092E1,-5.270585464E0,5.485575597E-1,-1.240701978E1,1.349126111E1
1.089628192E1,-5.944150794E0,8.118252285E-1,-1.460611666E1,1.579020686E1
1.090636392E1,-6.242561105E0,8.373525640E-1,-1.527707881E1,1.652452315E1
1.091644492E1,-6.503095493E0,1.106453269E0,-1.567279848E1,1.700444360E1
1.092652692E1,-6.650475149E0,1.020780888E0,-1.606848541E1,1.742030530E1
1.093660792E1,-6.703313513E0,6.326196170E-1,-1.620866188E1,1.755150534E1
1.094668992E1,-6.746366562E0,1.854626439E-1,-1.580281366E1,1.718361946E1
1.095677092E1,-7.460201080E0,4.941503875E-2,-1.541927023E1,1.712924214E1
1.096685192E1,-7.343962526E0,3.331559291E-1,-1.452979178E1,1.628372278E1
1.097693392E1,-7.020252482E0,2.736480115E-1,-1.319171144E1,1.494590509E1
1.098701492E1,-6.485190150E0,1.437475111E-1,-1.204386325E1,1.367965631E1
1.099709692E1,-6.635922598E0,1.645732467E-1,-1.091673525E1,1.277644949E1
1.100717792E1,-6.186232538E0,2.827019133E-1,-9.834547781E0,1.162186403E1
1.101725892E1,-5.877567964E0,6.865055099E-2,-8.997041727E0,1.074696599E1
1.102734092E1,-5.570121365E0,-2.095817506E-1,-8.295189908E0,9.994015816E0
1.103742192E1,-5.222333656E0,-3.388948251E-1,-7.828621860E0,9.416737160E0
1.104750392E1,-4.880967944E0,-1.411093935E-1,-7.492626230E0,8.943333146E0
1.105758492E1,-4.723158025E0,-8.293281376E-2,-7.343711096E0,8.731849303E0
1.106766592E1,-4.568382227E0,1.056416224E-2,-7.252487515E0,8.571394457E0
1.107774792E1,-4.549512677E0,1.380349275E-1,-7.434662197E0,8.717300111E0
1.108782892E1,-4.137223163E0,3.716939043E-1,-7.442033781E0,8.522830437E0
1.109791092E1,-4.311756118E0,3.925627631E-1,-7.407901829E0,8.580347071E0
1.110799192E1,-4.256694058E0,9.502089424E-1,-7.306343880E0,8.509112893E0
1.111807392E1,-4.139409437E0,1.263816022E0,-7.337147012E0,8.518548450E0
1.112815492E1,-4.018819385E0,1.214348139E0,-6.870227546E0,8.051433238E0
1.113823592E1,-3.867723824E0,1.324332657E0,-6.713271906E0,7.860099506E0
1.114831792E1,-3.743384537E0,1.485565682E0,-6.368840498E0,7.535380712E0
1.115839892E1,-3.484164019E0,1.631858632E0,-5.615361857E0,6.806956023E0
1.116848092E1,-3.121042863E0,1.924878981E0,-4.303908570E0,5.654175150E0
1.117856192E1,-1.824848177E0,1.931164737E0,-2.228856280E0,3.468035241E0
1.118864292E1,5.445976791E-1,1.049665257E0,1.055890203E0,1.585335265E0
1.119872492E1,3.835012161E0,-8.296444720E-1,6.244481331E0,7.374901716E0
1.120880592E1,7.614514364E0,-2.515785877E0,1.311484863E1,1.537235382E1
1.121888792E1,9.755612708E0,-2.932627449E0,2.068904878E1,2.306098485E1
1.122896892E1,1.149113999E1,-2.753059456E0,2.880178451E1,3.113147002E1
1.123905092E1,1.549030103E1,-4.033856669E0,3.699895403E1,4.031307511E1
1.124913192E1,1.910898259E1,-6.850277431E0,4.362449957E1,4.811628082E1
1.125921292E1,2.136711997E1,-8.098079098E0,4.394326170E1,4.952921310E1
1.126929492E1,2.199427361E1,-6.483931829E0,4.152309447E1,4.743370972E1
1.127937592E1,2.020092555E1,-4.670975134E0,3.747084772E1,4.282475722E1
1.128945792E1,1.620225217E1,-2.814231564E0,3.086245557E1,3.497033083E1
1.129953892E1,1.057346627E1,-7.321962377E-1,2.176897337E1,2.421203218E1
1.130961992E1,5.215308226E0,9.856647040E-1,1.270765204E1,1.377154294E1
1.131970192E1,1.782957847E0,1.613181894E0,5.735126867E0,6.218759900E0
1.132978292E1,-8.014819425E-1,1.351366674E0,2.567728740E-1,1.592010522E0
1.133986492E1,-2.823412278E0,5.987559061E-1,-4.906154825E0,5.692145526E0
1.134994592E1,-4.167854387E0,-3.327292286E-1,-8.613911108E0,9.575029164E0
1.136002692E1,-5.214303090E0,-1.273907877E0,-1.134490113E1,1.255064060E1
1.137010892E1,-6.015802574E0,-2.139668408E0,-1.381185310E1,1.521628561E1
1.138018992E1,-6.694705827E0,-2.944863040E0,-1.547537894E1,1.711661934E1
1.139027192E1,-7.308789185E0,-3.614381219E0,-1.666620651E1,1.855382953E1
1.140035292E1,-7.731057558E0,-3.829306448E0,-1.740120619E1,1.942253371E1
1.141043492E1,-8.033379657E0,-3.663287038E0,-1.739435560E1,1.950688256E1
1.142051592E1,-8.141792883E0,-3.271746076E0,-1.690101665E1,1.904304276E1
1.143059692E1,-8.031247762E0,-2.920841801E0,-1.609408920E1,1.822229307E1
1.144067892E1,-7.725776938E0,-2.718854706E0,-1.529088408E1,1.734620812E1
1.145075992E1,-7.292538604E0,-2.319865707E0,-1.422185987E1,1.615005245E1
1.146084192E1,-6.791663187E0,-1.874223382E0,-1.281933502E1,1.462787587E1
1.147092292E1,-6.271706552E0,-1.615596648E0,-1.135583776E1,1.307285381E1
1.148100392E1,-5.771596536E0,-1.290248799E0,-1.005416569E1,1.166457527E1
1.149108592E1,-5.382025208E0,-8.824362047E-1,-8.986966390E0,1.051239525E1
1.150116692E1,-5.005116611E0,-7.584792528E-1,-8.301870936E0,9.723556145E0
1.151124892E1,-4.650899888E0,-7.585932735E-1,-7.873074147E0,9.175599711E0
1.152133050E1,-4.489257120E0,-6.729642355E-1,-7.853109414E0,9.070702168E0
1.153141150E1,-4.510573145E0,-4.606036688E-1,-7.920439517E0,9.126378689E0
1.154149350E1,-4.499683875E0,-6.296968862E-2,-7.879671561E0,9.074158036E0
1.155157450E1,-4.526960259E0,2.893813339E-1,-7.981148234E0,9.180187246E0
1.156165650E1,-4.542129398E0,6.335506399E-1,-8.035613878E0,9.252211427E0
1.157173750E1,-3.785751708E0,1.070009328E0,-7.196734899E0,8.201818649E0
1.158181850E1,-4.154684118E0,1.120342014E0,-6.846937501E0,8.086848552E0
1.159190050E1,-3.670007828E0,1.942090406E0,-6.271784905E0,7.521699176E0
1.160198150E1,-3.488371090E0,2.408678188E0,-5.905498359E0,7.269482399E0
1.161206350E1,-3.359432384E0,3.093353081E0,-6.434726340E0,7.890521041E0
1.162214450E1,-2.977510676E0,3.169381503E0,-6.142428707E0,7.525953717E0
1.163222550E1,-2.906672243E0,2.732832475E0,-6.170926867E0,7.348296079E0
1.164230750E1,-2.553536963E0,2.645643766E0,-6.232167095E0,7.236013312E0
1.165238850E1,-2.629668295E0,2.533018206E0,-5.709933554E0,6.777512653E0
1.166247050E1,-1.432930947E0,1.989072345E0,-4.182798116E0,4.848247103E0
1.167255150E1,-4.059423620E-1,8.126074398E-1,-2.782627364E0,2.927137697E0
1.168263250E1,7.884414822E-1,-3.492397922E-1,-5.341256082E-1,1.014346375E0
1.169271450E1,1.351951688E0,-1.671906066E0,1.852278051E0,2.837953001E0
1.170279550E1,1.100230516E0,-2.565043991E0,5.488309463E0,6.157231409E0
1.171287750E1,1.183566495E0,-1.939248367E0,1.184551868E1,1.206141893E1
1.172295850E1,2.154996006E0,-1.352442854E0,2.033127636E1,2.048984890E1
1.173304050E1,4.935147074E0,-3.406768810E0,2.771602906E1,2.835736267E1
1.174312150E1,1.035635214E1,-7.530374100E0,3.442419577E1,3.672854228E1
1.175320250E1,1.666178133E1,-1.082448958E1,3.979533112E1,4.447980340E1
1.176328450E1,2.124409689E1,-1.133253543E1,4.141823752E1,4.790833342E1
1.177336550E1,2.223187639E1,-9.300763650E0,3.942980998E1,4.621115068E1
1.178344750E1,1.961591397E1,-6.780826542E0,3.339632074E1,3.932019746E1
1.179352850E1,1.626936534E1,-4.910534974E0,2.607264806E1,3.112215575E1
1.180360950E1,1.359677965E1,-3.585245128E0,1.953604334E1,2.407038406E1
1.181369150E1,1.012670274E1,-2.121979265E0,1.280660564E1,1.646396223E1
1.182377250E1,6.158618478E0,-1.274327561E-2,6.742246614E0,9.131628187E0
1.183385450E1,3.296469858E0,1.773397796E0,2.750629061E0,4.645170987E0
1.184393550E1,1.410008107E0,2.386348695E0,-3.887006772E-1,2.798905353E0
1.185401650E1,-2.029150477E-1,2.019071339E0,-3.723087682E0,4.240189321E0
1.186409850E1,-1.618000000E0,1.076717838E0,-6.937567590E0,7.204657478E0
1.187417950E1,-3.397686038E0,1.303664943E0,-1.058229089E1,1.119056268E1
1.188426150E1,-4.307139156E0,3.339754164E-2,-1.184343941E1,1.260236566E1
1.189434250E1,-4.562058171E0,-2.031218491E0,-1.252668422E1,1.348540103E1
1.190442350E1,-4.867847669E0,-3.476259460E0,-1.350695355E1,1.477220752E1
1.191450550E1,-5.692111241E0,-4.410889520E0,-1.381342834E1,1.557776875E1
1.192458650E1,-6.826678069E0,-5.266232797E0,-1.330752257E1,1.585644658E1
1.193466850E1,-6.680709347E0,-5.997630597E0,-1.321422790E1,1.597558353E1
1.194474950E1,-7.785453621E0,-6.858655322E0,-1.278246482E1,1.646347010E1
1.195483050E1,-9.322636330E0,-6.591491361E0,-1.264126275E1,1.703410785E1
1.196491250E1,-9.702921694E0,-5.805122132E0,-1.244916067E1,1.681748298E1
1.197499350E1,-9.043235900E0,-5.443729121E0,-1.164236770E1,1.571493009E1
1.198507550E1,-7.106649771E0,-4.569013141E0,-1.066597624E1,1.360674102E1
1.199515650E1,-5.761008398E0,-3.790435035E0,-9.121834173E0,1.143522952E1
1.200523750E1,-5.700845227E0,-3.527242503E0,-8.925266570E0,1.116250238E1
1.201531950E1,-5.431496161E0,-2.990427760E0,-8.846327405E0,1.080283839E1
1.202540050E1,-5.329523059E0,-2.678753917E0,-8.281299847E0,1.020585448E1
1.203548250E1,-4.541486789E0,-2.638905434E0,-7.964776615E0,9.540785642E0
1.204556350E1,-3.888193756E0,-2.490470941E0,-7.696708090E0,8.975511775E0
1.205564450E1,-4.098036878E0,-2.399663098E0,-7.651716104E0,9.005612060E0
1.206572650E1,-4.248437789E0,-2.397047053E0,-7.907890223E0,9.291382352E0
1.207580750E1,-4.397868648E0,-2.411023360E0,-8.181749246E0,9.596629774E0
1.208588950E1,-4.505598041E0,-2.171865955E0,-8.386970143E0,9.765177091E0
1.209597050E1,-4.384563016E0,-1.602008889E0,-8.562204764E0,9.752034442E0
1.210605150E1,-4.330249984E0,-1.295600317E0,-8.903732445E0,9.985294014E0
1.211613350E1,-4.192744522E0,-1.207831417E0,-8.816144078E0,9.836786048E0
1.212621450E1,-3.854989173E0,-1.078979980E0,-8.218047591E0,9.141194973E0
1.213629550E1,-3.516292714E0,-8.604170524E-1,-7.731668007E0,8.537172959E0
1.214637750E1,-3.280088883E0,-4.185601417E-1,-7.243800307E0,7.962839855E0
1.215645850E1,-2.917338734E0,1.362371280E-1,-6.644184714E0,7.257728044E0
1.216654050E1,-1.874934842E0,6.685590895E-1,-5.669636883E0,6.008921226E0
1.217662150E1,8.464897156E-2,6.707764267E-1,-3.903556146E0,3.961673516E0
1.218670250E1,1.778469525E0,1.590137506E-1,-7.968334061E-1,1.955296065E0
1.219678450E1,2.285665781E0,-1.040918955E-1,3.946017457E0,4.561376651E0
1.220686550E1,2.506471262E0,5.921106186E-1,1.020473500E1,1.052471423E1
1.221694750E1,3.475310457E0,1.802393700E0,1.838082181E1,1.879311087E1
1.222702850E1,6.299139349E0,1.320138157E0,2.547169696E1,2.627221474E1
1.223710950E1,1.132947383E1,-1.257718838E0,2.972547618E1,3.183618646E1
1.224719150E1,1.761883137E1,-4.326548989E0,3.187079154E1,3.667273644E1
1.225727250E1,2.334916002E1,-4.927725204E0,3.310140590E1,4.080648014E1
1.226735450E1,2.615865124E1,-3.073505877E0,3.281432632E1,4.207732745E1
1.227743550E1,2.524075767E1,-6.854400741E-1,2.952129141E1,3.884678007E1
1.228751650E1,2.307482971E1,6.234527177E-1,2.543223761E1,3.434581734E1
1.229759850E1,2.042876348E1,9.945363189E-1,2.110757844E1,2.939138220E1
1.230767950E1,1.597649935E1,1.264945265E0,1.656202550E1,2.304667670E1
1.231776150E1,1.082017082E1,1.832143164E0,1.156576099E1,1.594364050E1
1.232784250E1,6.255940120E0,2.183149765E0,6.816605655E0,9.506263321E0
1.233792350E1,2.259649472E0,1.904157325E0,2.877638186E0,4.124637243E0
1.234800550E1,-1.491767970E0,1.013869626E0,-3.614696091E-1,1.839555265E0
1.235808650E1,-4.693254780E0,-2.718315008E-1,-3.126422594E0,5.645799414E0
1.236816850E1,-6.964158388E0,-1.617864491E0,-5.319362937E0,8.911375293E0
1.237824950E1,-8.553517556E0,-2.736864130E0,-7.204923924E0,1.151364480E1
1.238833050E1,-9.593338441E0,-3.583704679E0,-8.779926424E0,1.348933615E1
1.239841250E1,-1.016824955E1,-4.265069609E0,-9.914875660E0,1.482865054E1
1.240849350E1,-1.045500168E1,-4.638972153E0,-1.082033104E1,1.574505276E1
1.241857550E1,-1.067593639E1,-4.763766645E0,-1.125893419E1,1.623060965E1
1.242865650E1,-1.077722419E1,-4.801352548E0,-1.164028609E1,1.657401001E1
1.243873750E1,-1.068578894E1,-4.899082325E0,-1.182105744E1,1.667106751E1
1.244881950E1,-1.041495761E1,-4.932295972E0,-1.170840030E1,1.642819294E1
1.245890050E1,-1.003350163E1,-4.807571062E0,-1.131784957E1,1.587065258E1
1.246898150E1,-9.487359996E0,-4.695491924E0,-1.082280207E1,1.513904517E1
1.247906350E1,-9.010886765E0,-4.702348369E0,-1.029504057E1,1.446706677E1
1.248914450E1,-8.519224221E0,-4.665726088E0,-9.701338853E0,1.372815198E1
1.249922650E1,-8.034920399E0,-4.536366090E0,-9.094555743E0,1.295567471E1
1.250930750E1,-7.598699985E0,-4.385348882E0,-8.668416513E0,1.233340874E1
1.251938850E1,-7.172128646E0,-4.139094564E0,-8.295207449E0,1.172100677E1
1.252947025E1,-6.797944851E0,-3.886438130E0,-7.889444012E0,1.111574480E1
1.253955125E1,-6.560181275E0,-3.572658996E0,-7.555264528E0,1.062458906E1
1.254963325E1,-6.332417023E0,-3.126179350E0,-7.258742282E0,1.012728207E1
1.255971425E1,-6.131300871E0,-2.657349014E0,-7.027885437E0,9.697707351E0
1.256979525E1,-5.885564032E0,-2.314923494E0,-6.884847339E0,9.348789100E0
1.257987725E1,-5.603224792E0,-2.028466645E0,-6.631217929E0,8.915371906E0
1.258995825E1,-5.371849884E0,-1.714846848E0,-6.387242271E0,8.520230907E0
1.260004025E1,-5.071839774E0,-1.333193820E0,-6.119767823E0,8.059312790E0
1.261012125E1,-4.709482557E0,-8.533305193E-1,-5.843534245E0,7.553429116E0
1.262020225E1,-4.301717033E0,-2.652872971E-1,-5.483472061E0,6.974497303E0
1.263028425E1,-3.811376545E0,3.451033987E-2,-5.152427854E0,6.409001086E0
1.264036525E1,-3.032273067E0,-4.806016579E-2,-4.615856940E0,5.522963428E0
1.265044625E1,-2.326096646E0,1.193723328E-1,-3.604631279E0,4.291659588E0
1.266052825E1,-1.927234970E0,7.314715485E-1,-2.480775381E0,3.225450627E0
1.267060925E1,-9.970119569E-1,1.389227542E0,-9.491627294E-1,1.955734105E0
1.268069125E1,8.510522979E-1,1.438667358E0,1.651489928E0,2.349781429E0
1.269077225E1,2.943718447E0,6.913380875E-1,5.247577840E0,6.056442837E0
1.270085325E1,5.055495636E0,-4.701216933E-1,9.498277332E0,1.077015890E1
1.271093525E1,7.199178450E0,-1.666619306E0,1.425278462E1,1.605452147E1
1.272101625E1,9.532680010E0,-2.291998900E0,1.966241336E1,2.197124818E1
1.273109825E1,1.223293414E1,-3.030504576E0,2.476505393E1,2.778734481E1
1.274117925E1,1.472881580E1,-4.545827177E0,2.902206549E1,3.286157095E1
1.275126025E1,1.666630591E1,-5.491848198E0,3.261287805E1,3.703411891E1
1.276134225E1,1.810978348E1,-5.691980263E0,3.370438013E1,3.868265938E1
1.277142325E1,1.881666975E1,-5.093505462E0,3.216953280E1,3.761501959E1
1.278150425E1,1.808106897E1,-4.172498538E0,2.905650325E1,3.447629882E1
1.279158625E1,1.584510891E1,-3.817008876E0,2.526385417E1,3.006491910E1
1.280166725E1,1.218930222E1,-3.511246860E0,2.026060457E1,2.390397542E1
1.281174925E1,7.976473385E0,-2.407229687E0,1.482408098E1,1.700506569E1
1.282183025E1,4.225706446E0,-1.046279353E0,9.683767970E0,1.061728108E1
1.283191125E1,1.260678990E0,-4.378453553E-2,5.213832974E0,5.364259770E0
1.284199325E1,-7.720923749E-1,6.289601371E-1,1.219466060E0,1.574425280E0
1.285207425E1,-2.052490223E0,1.041307831E0,-2.401224597E0,3.326096463E0
1.286215625E1,-2.596558437E0,1.144630179E0,-5.642872422E0,6.316193722E0
1.287223725E1,-2.674205952E0,9.766302442E-1,-8.425516158E0,8.893509242E0
1.288231825E1,-2.588589267E0,9.312931998E-1,-1.036414764E1,1.072304331E1
1.289240025E1,-2.572471124E0,8.671221276E-1,-1.174446242E1,1.205412403E1
1.290248125E1,-2.751663141E0,7.299218170E-1,-1.276129088E1,1.307497537E1
1.291256225E1,-3.090734406E0,4.534620623E-1,-1.367635207E1,1.402857344E1
1.292264425E1,-3.482373894E0,7.375422008E-2,-1.465716987E1,1.506535749E1
1.293272525E1,-3.683410816E0,-1.208224788E-1,-1.558065221E1,1.601058514E1
1.294280725E1,-3.746790540E0,-1.679816618E-1,-1.586267745E1,1.630003660E1
1.295288825E1,-3.902415939E0,-1.101930448E-1,-1.572144615E1,1.619891545E1
1.296296925E1,-3.929369557E0,1.294941920E-1,-1.541467081E1,1.590813597E1
1.297305125E1,-3.864055865E0,2.569463536E-1,-1.484955379E1,1.534621116E1
1.298313225E1,-3.753466891E0,2.105769102E-1,-1.400452471E1,1.450032995E1
1.299321425E1,-3.547927613E0,5.316414552E-2,-1.321402208E1,1.368214151E1
1.300329525E1,-3.237829594E0,-1.869422818E-1,-1.252670293E1,1.293973625E1
1.301337625E1,-2.959032598E0,-4.283808327E-1,-1.182987153E1,1.220185414E1
1.302345825E1,-2.813771389E0,-5.817512528E-1,-1.119516680E1,1.155800604E1
1.303353925E1,-2.788144796E0,-5.645152325E-1,-1.072364616E1,1.109454892E1
1.304362025E1,-2.729999499E0,-4.281373693E-1,-1.045431873E1,1.081337038E1
1.305370225E1,-2.655561520E0,-3.821555232E-1,-1.032361708E1,1.066654206E1
1.306378325E1,-2.574360067E0,-3.756745425E-1,-1.017469552E1,1.050204218E1
1.307386525E1,-2.437276336E0,-2.104632184E-1,-1.004898740E1,1.034247352E1
1.308394625E1,-2.300068935E0,2.239359342E-2,-1.002690363E1,1.028735219E1
1.309402725E1,-2.169915177E0,2.186805298E-1,-9.912527418E0,1.014960851E1
1.310410925E1,-2.129903996E0,2.921113989E-1,-9.594925960E0,9.832823820E0
1.311419025E1,-2.114102042E0,3.989803746E-1,-9.283264103E0,9.529302450E0
1.312427125E1,-1.945505619E0,6.429991557E-1,-8.891513518E0,9.124552190E0
1.313435325E1,-1.737347665E0,7.711127470E-1,-8.107455109E0,8.327293685E0
1.314443425E1,-1.566736876E0,7.636270684E-1,-6.714675822E0,6.937194111E0
1.315451625E1,-1.443395709E0,9.086758773E-1,-5.008919055E0,5.291347005E0
1.316459725E1,-1.286863845E0,1.175418693E0,-3.115720435E0,3.570061833E0
1.317467825E1,-9.328022200E-1,1.142653308E0,-5.077160740E-1,1.559984672E0
1.318476025E1,-5.160770077E-1,5.886626617E-1,2.847815632E0,2.953457818E0
1.319484125E1,4.588434376E-1,-2.018194988E-1,6.389883458E0,6.409514726E0
1.320492225E1,1.448783918E0,-9.240278882E-1,1.098430801E1,1.111790560E1
1.321500425E1,1.956930639E0,-1.391045587E0,1.808394346E1,1.824263130E1
1.322508525E1,3.241633208E0,-2.050862504E0,2.524434552E1,2.553411842E1
1.323516725E1,6.479349951E0,-3.355398097E0,3.163311859E1,3.246374692E1
1.324524825E1,9.591915228E0,-5.392751926E0,3.702279664E1,3.862349132E1
1.325532925E1,1.278341207E1,-6.983736620E0,3.910418087E1,4.172918838E1
1.326541125E1,1.521631220E1,-8.300191031E0,3.898807154E1,4.266730658E1
1.327549225E1,1.539699935E1,-8.879960005E0,3.586875507E1,4.003109877E1
1.328557325E1,1.353752747E1,-8.415640211E0,3.161558396E1,3.540667733E1
1.329565525E1,1.049122869E1,-7.238788658E0,2.644499407E1,2.935649250E1
1.330573625E1,7.235512463E0,-5.276798716E0,2.037307928E1,2.225442887E1
1.331581825E1,4.658857656E0,-3.126531645E0,1.407580110E1,1.515283245E1
1.332589925E1,2.904335696E0,-1.341978823E0,8.477335353E0,9.060976089E0
1.333598025E1,1.793388549E0,9.546690524E-2,3.586932927E0,4.011414244E0
1.334606225E1,1.161215075E0,1.084652218E0,-8.257619208E-1,1.790746669E0
1.335614325E1,8.253979316E-1,1.539125739E0,-5.022300408E0,5.317301118E0
1.336622425E1,6.631523153E-1,1.476552784E0,-8.942046325E0,9.087363292E0
1.337630625E1,7.603058499E-1,1.237527086E0,-1.214507154E1,1.223161072E1
1.338638725E1,7.122782823E-1,1.096426756E0,-1.466475955E1,1.472292990E1
1.339646925E1,6.344019214E-1,1.031431007E0,-1.663410880E1,1.667812613E1
1.340655025E1,5.383872782E-1,8.976024203E-1,-1.804032324E1,1.807066168E1
1.341663125E1,5.207181620E-1,7.559699933E-1,-1.887538749E1,1.889769539E1
1.342671325E1,3.993683008E-1,7.751039102E-1,-1.928614971E1,1.930585020E1
1.343679425E1,1.839702152E-1,8.591484989E-1,-1.932641832E1,1.934638018E1
1.344687525E1,-6.776277920E-2,7.462725323E-1,-1.914049791E1,1.915516053E1
1.345695725E1,-3.449936903E-1,5.806954284E-1,-1.869963422E1,1.871182909E1
1.346703825E1,-6.352567112E-1,5.535382911E-1,-1.775994457E1,1.777992089E1
1.347712025E1,-9.758160925E-1,5.581698706E-1,-1.664062143E1,1.667855066E1
1.348720125E1,-1.216460811E0,5.178555479E-1,-1.537368417E1,1.543042825E1
1.349728225E1,-1.342777553E0,6.143207556E-1,-1.392102179E1,1.399911744E1
1.350736425E1,-1.446699532E0,7.856834967E-1,-1.261878137E1,1.272571733E1
1.351744525E1,-1.513924385E0,7.446756577E-1,-1.149518626E1,1.161833964E1
1.352752642E1,-1.473789974E0,4.999989919E-1,-1.048373724E1,1.059862266E1
1.353760842E1,-1.416291672E0,2.488534782E-1,-9.673124283E0,9.779424500E0
1.354768942E1,-1.493946935E0,1.981390420E-1,-9.041503370E0,9.166238035E0
1.355777142E1,-1.647858222E0,3.467604996E-1,-8.650510000E0,8.812888450E0
1.356785242E1,-1.791246860E0,5.423388997E-1,-8.518200958E0,8.721378582E0
1.357793342E1,-1.837635307E0,6.664656401E-1,-8.547099652E0,8.767781500E0
1.358801542E1,-1.862601602E0,7.162081960E-1,-8.521607546E0,8.752144542E0
1.359809642E1,-1.938840524E0,8.134786749E-1,-8.422175644E0,8.680661997E0
1.360817742E1,-2.098677379E0,1.120005945E0,-7.945544538E0,8.294006153E0
1.361825942E1,-2.271276661E0,1.540201042E0,-7.129308316E0,7.639237788E0
1.362834042E1,-2.228391281E0,1.853026494E0,-6.316850565E0,6.949966615E0
1.363842242E1,-2.212084273E0,1.897568244E0,-5.412658771E0,6.147434997E0
1.364850342E1,-1.931998112E0,1.793690119E0,-4.262071742E0,5.011506408E0
1.365858442E1,-1.205982527E0,1.446776569E0,-2.502154555E0,3.131825939E0
1.366866642E1,2.076784819E-2,8.164285952E-1,2.699086440E-1,8.601381463E-1
1.367874742E1,1.701733298E0,-3.216000769E-1,4.274844400E0,4.612333191E0
1.368882842E1,3.648157368E0,-1.949665474E0,9.960207953E0,1.078498911E1
1.369891042E1,5.692076157E0,-3.581459348E0,1.624793880E1,1.758471203E1
1.370899142E1,8.309046054E0,-4.865227824E0,2.240351322E1,2.438499728E1
1.371907242E1,1.215022177E1,-6.069057845E0,2.834132797E1,3.142757106E1
1.372915442E1,1.665057690E1,-7.684601430E0,3.263080795E1,3.743079531E1
1.373923542E1,1.920939214E1,-8.577583526E0,3.552004116E1,4.128255091E1
1.374931742E1,1.995785446E1,-7.405408577E0,3.613169734E1,4.193632773E1
1.375939842E1,1.921863191E1,-4.970778837E0,3.507406701E1,4.030204252E1
1.376947942E1,1.735621889E1,-2.749205264E0,3.242043448E1,3.687656486E1
1.377956142E1,1.503163257E1,-1.470362775E0,2.859793186E1,3.234120670E1
1.378964242E1,1.181916294E1,-1.079051024E0,2.372814379E1,2.653077028E1
1.379972342E1,7.975676994E0,-6.240657252E-1,1.796934038E1,1.966972484E1
1.380980542E1,4.321969742E0,-4.404893931E-2,1.207161531E1,1.282206141E1
1.381988642E1,1.243746916E0,2.116279107E-1,6.409285104E0,6.532275891E0
1.382996842E1,-1.078016651E0,-1.252744026E-1,1.098930387E0,1.544493954E0
1.384004942E1,-2.645520389E0,-7.181656976E-1,-3.583766659E0,4.511975573E0
1.385013042E1,-3.841438835E0,-1.271661816E0,-7.437867056E0,8.467327939E0
1.386021242E1,-5.030440317E0,-1.792322602E0,-1.053564882E1,1.181175881E1
1.387029342E1,-5.951836959E0,-2.262554954E0,-1.280333704E1,1.429926423E1
1.388037442E1,-6.714486957E0,-2.822564724E0,-1.457580820E1,1.629433618E1
1.389045642E1,-7.209658999E0,-3.457620291E0,-1.568901398E1,1.760907382E1
1.390053742E1,-7.470326704E0,-4.075348804E0,-1.631664241E1,1.840236584E1
1.391061842E1,-7.656765175E0,-4.434304110E0,-1.665956407E1,1.886346153E1
1.392070042E1,-7.865501418E0,-4.534656949E0,-1.682247919E1,1.911609354E1
1.393078142E1,-8.125356944E0,-4.458383237E0,-1.673157955E1,1.912705834E1
1.394086342E1,-8.290974065E0,-4.342198184E0,-1.636367391E1,1.885112092E1
1.395094442E1,-8.268234243E0,-4.192547763E0,-1.568381814E1,1.821876247E1
1.396102542E1,-8.102235299E0,-3.918860941E0,-1.472527707E1,1.725796838E1
1.397110742E1,-7.888631834E0,-3.593844336E0,-1.363825629E1,1.616008242E1
1.398118842E1,-7.573875046E0,-3.198293061E0,-1.243634825E1,1.490823328E1
1.399126942E1,-7.209795240E0,-2.782701039E0,-1.123582950E1,1.363702450E1
1.400135142E1,-6.841635831E0,-2.430821448E0,-1.012549705E1,1.245963740E1
1.401143242E1,-6.390682188E0,-2.159420448E0,-9.148171202E0,1.136630775E1
1.402151342E1,-5.945775735E0,-1.839074599E0,-8.350406334E0,1.041459219E1
1.403159542E1,-5.580967366E0,-1.647650061E0,-7.903729929E0,9.814830322E0
1.404167642E1,-5.209958024E0,-1.671115815E0,-7.687207534E0,9.435541868E0
1.405175842E1,-4.965626855E0,-1.702647364E0,-7.498635414E0,9.153468806E0
1.406183942E1,-4.840861892E0,-1.623405312E0,-7.376381244E0,8.971086273E0
1.407192042E1,-4.743056100E0,-1.514853947E0,-7.254648646E0,8.798936903E0
1.408200242E1,-4.686807347E0,-1.303034028E0,-7.009245098E0,8.531915238E0
1.409208342E1,-4.617775996E0,-1.100894029E0,-6.700736060E0,8.211923439E0
1.410216442E1,-4.501864886E0,-8.017318379E-1,-6.256444150E0,7.749364799E0
1.411224642E1,-4.304414354E0,-4.310101064E-1,-5.721641434E0,7.172930596E0
1.412232742E1,-4.039686635E0,-2.231200283E-1,-5.019669161E0,6.447164427E0
1.413240842E1,-3.727408190E0,-2.788259402E-2,-4.305931122E0,5.695207817E0
1.414249042E1,-3.054660886E0,2.032186644E-1,-3.175048040E0,4.410576040E0
1.415257142E1,-1.830418527E0,2.900716708E-1,-1.301020101E0,2.264338063E0
1.416265342E1,-6.803381592E-1,4.322581214E-1,1.356306694E0,1.577743624E0
1.417273442E1,1.283590136E0,5.601508342E-1,4.680241801E0,4.885287700E0
1.418281542E1,4.455066696E0,3.485664122E-1,9.180227977E0,1.021007853E1
1.419289742E1,8.145050367E0,-1.596959379E-1,1.475382785E1,1.685356890E1
1.420297842E1,1.180412858E1,-6.262144308E-1,2.005515681E1,2.327958141E1
1.421305942E1,1.568248732E1,-8.758306052E-1,2.451794592E1,2.911764345E1
1.422314142E1,1.984552009E1,-1.740364828E0,2.856623059E1,3.482675793E1
1.423322242E1,2.303343610E1,-2.494200588E0,3.118655036E1,3.885049727E1
1.424330342E1,2.443453656E1,-2.326597314E0,3.105648022E1,3.958490363E1
1.425338542E1,2.446376328E1,-2.212726298E0,2.882484592E1,3.787140893E1
1.426346642E1,2.343035913E1,-2.319034964E0,2.567767332E1,3.483823416E1
1.427354842E1,2.096836793E1,-2.266600057E0,2.199992904E1,3.047633192E1
1.428362942E1,1.737785826E1,-2.079219015E0,1.795416568E1,2.507319634E1
1.429371042E1,1.308396831E1,-1.392914796E0,1.344048474E1,1.880896245E1
1.430379242E1,9.031244431E0,-5.420425920E-1,9.034267441E0,1.278574106E1
1.431387342E1,5.511732239E0,-1.686877862E-2,5.079232993E0,7.495204109E0
1.432395442E1,2.702104188E0,4.213689248E-1,1.458456382E0,3.099357003E0
1.433403642E1,5.467737204E-1,7.934867522E-1,-1.727466309E0,1.978060307E0
1.434411742E1,-1.240744078E0,7.181561959E-1,-4.656803237E0,4.872474790E0
1.435419842E1,-2.791283874E0,4.302503338E-1,-7.322668721E0,7.848430303E0
1.436428042E1,-3.960670871E0,9.479009002E-2,-9.678081552E0,1.045758870E1
1.437436142E1,-4.761254389E0,-1.931768024E-1,-1.162416648E1,1.256296570E1
1.438444342E1,-5.324430134E0,-4.566628647E-1,-1.309726020E1,1.414554071E1
1.439452442E1,-5.734281945E0,-6.812148030E-1,-1.415715458E1,1.528957386E1
1.440460542E1,-5.884021536E0,-8.562674296E-1,-1.513835946E1,1.626421934E1
1.441468742E1,-5.949188755E0,-1.102395886E0,-1.594848885E1,1.705762059E1
1.442476842E1,-6.069399322E0,-1.245534848E0,-1.647423774E1,1.760083732E1
1.443484942E1,-6.165735708E0,-1.374581290E0,-1.670959519E1,1.786382775E1
1.444493142E1,-6.256889123E0,-1.608573119E0,-1.666338464E1,1.787189292E1
1.445501242E1,-6.186917832E0,-1.741323918E0,-1.626494133E1,1.748881007E1
1.446509342E1,-6.183726422E0,-1.785635726E0,-1.563735851E1,1.691017293E1
1.447517542E1,-6.234879034E0,-1.804343746E0,-1.487635859E1,1.623069370E1
1.448525642E1,-6.181412678E0,-1.648035685E0,-1.400215425E1,1.539435636E1
1.449533742E1,-6.037785766E0,-1.555720137E0,-1.315476172E1,1.455757116E1
1.450541942E1,-5.857918396E0,-1.534078130E0,-1.242891176E1,1.382557236E1
1.451550042E1,-5.678673170E0,-1.448409404E0,-1.177375229E1,1.315167145E1
1.452558579E1,-5.500956405E0,-1.368104036E0,-1.123796491E1,1.258666299E1
1.453566679E1,-5.339031801E0,-1.343932816E0,-1.072799064E1,1.205824196E1
1.454574779E1,-5.125443538E0,-1.269722002E0,-1.019886557E1,1.148473876E1
1.455582979E1,-4.913076174E0,-1.161469502E0,-9.845537038E0,1.106444434E1
1.456591079E1,-4.786187794E0,-1.195819920E0,-9.635507390E0,1.082499799E1
1.457599179E1,-4.819040667E0,-1.157927989E0,-9.244617516E0,1.048937096E1
1.458607379E1,-4.787482660E0,-8.631507719E-1,-8.791658862E0,1.004780001E1
1.459615479E1,-4.644573493E0,-5.210746229E-1,-8.392035002E0,9.605718774E0
1.460623579E1,-4.439473341E0,-3.721966917E-1,-7.763449963E0,8.950899913E0
1.461631779E1,-4.148351583E0,-2.631604455E-1,-6.784744177E0,7.956810154E0
1.462639879E1,-3.967464751E0,-4.788749021E-2,-5.430022663E0,6.725192628E0
1.463647979E1,-3.645555064E0,2.693560821E-1,-3.890860087E0,5.338671805E0
1.464656179E1,-2.699526735E0,7.089476352E-1,-1.271158370E0,3.066903152E0
1.465664279E1,-1.127595485E0,8.663788734E-1,2.942367448E0,3.267967278E0
1.466672379E1,5.203340730E-1,2.542294814E-1,8.094116440E0,8.114807523E0
1.467680579E1,2.618276165E0,-8.966249851E-1,1.344003100E1,1.372201660E1
1.468688679E1,5.810440759E0,-2.363110106E0,1.949751837E1,2.048166824E1
1.469696879E1,8.785041568E0,-3.726203956E0,2.664778486E1,2.830487572E1
1.470704979E1,1.135762701E1,-4.305778802E0,3.228231390E1,3.449178471E1
1.471713079E1,1.500580776E1,-5.445729454E0,3.576372738E1,3.916470902E1
1.472721279E1,1.792680773E1,-6.907119969E0,3.743411785E1,4.207602549E1
1.473729379E1,1.902207542E1,-6.363717753E0,3.627690008E1,4.145298224E1
1.474737479E1,1.837669952E1,-4.520616322E0,3.373104343E1,3.867715538E1
1.475745679E1,1.702770009E1,-3.178846683E0,2.982656284E1,3.449161474E1
1.476753779E1,1.520393716E1,-2.758705235E0,2.541754472E1,2.974595333E1
1.477761879E1,1.252352205E1,-2.631206698E0,2.061328290E1,2.426250780E1
1.478770079E1,9.220051024E0,-2.007755076E0,1.559047436E1,1.822370193E1
1.479778179E1,5.968768741E0,-1.126550880E0,1.048011664E1,1.211314005E1
1.480786279E1,3.461911562E0,-5.070365544E-1,5.580345806E0,6.586514788E0
1.481794479E1,1.663525544E0,-2.002773687E-1,1.254818326E0,2.093322071E0
1.482802579E1,3.612029761E-1,-8.590597674E-2,-2.674969014E0,2.700612274E0
1.483810679E1,-2.882680240E-1,-3.979721685E-1,-6.041069562E0,6.061023161E0
1.484818879E1,-4.944987354E-1,-1.072258679E0,-8.712788109E0,8.792436767E0
1.485826979E1,-6.525666623E-1,-1.390805851E0,-1.092540433E1,1.103288920E1
1.486835179E1,-8.625656117E-1,-1.531193845E0,-1.275692184E1,1.287740770E1
1.487843279E1,-1.139296348E0,-1.775499724E0,-1.431398743E1,1.446860848E1
1.488851379E1,-1.508291324E0,-2.065077963E0,-1.560947197E1,1.581755685E1
1.489859579E1,-1.838776976E0,-2.370280693E0,-1.653494587E1,1.680487329E1
1.490867679E1,-2.117063803E0,-2.606622080E0,-1.712421774E1,1.745036593E1
1.491875779E1,-2.273421419E0,-2.735758130E0,-1.748995406E1,1.784800579E1
1.492883979E1,-2.454373448E0,-2.679512300E0,-1.764238279E1,1.801270123E1
1.493892079E1,-2.725336345E0,-2.370547472E0,-1.747709136E1,1.784644715E1
1.494900179E1,-2.729085287E0,-2.040900311E0,-1.699143800E1,1.732980513E1
1.495908379E1,-2.787914416E0,-1.799480325E0,-1.640637028E1,1.673856571E1
1.496916479E1,-2.844505816E0,-1.424673070E0,-1.581064659E1,1.612753708E1
1.497924579E1,-2.818195392E0,-1.116618800E0,-1.516371065E1,1.546373770E1
1.498932779E1,-2.714378078E0,-9.156524827E-1,-1.439017080E1,1.467253500E1
1.499940879E1,-2.712035683E0,-7.671215107E-1,-1.364046654E1,1.392860152E1
1.500948979E1,-2.646644224E0,-6.287035174E-1,-1.299833701E1,1.327993820E1
1.501957179E1,-2.623264717E0,-4.713178144E-1,-1.240798106E1,1.269100675E1
1.502965279E1,-2.598643846E0,-2.821469394E-1,-1.184761432E1,1.213253979E1
1.503973379E1,-2.647819807E0,-1.758102795E-1,-1.136036350E1,1.166617838E1
1.504981579E1,-2.638777673E0,-1.258524730E-1,-1.092472723E1,1.123960192E1
1.505989679E1,-2.612461109E0,-5.065029960E-2,-1.050872941E1,1.082870778E1
1.506997779E1,-2.605227226E0,1.215256065E-2,-1.008019399E1,1.041142005E1
1.508005979E1,-2.685454241E0,1.249943210E-1,-9.659226621E0,1.002636260E1
1.509014079E1,-2.593721075E0,1.577401905E-1,-9.239927464E0,9.598360825E0
1.510022179E1,-2.328233804E0,7.080598086E-2,-8.543104250E0,8.854959986E0
1.511030379E1,-2.314570615E0,2.683696568E-1,-7.351773237E0,7.712187052E0
1.512038479E1,-2.153114372E0,7.100010842E-1,-6.032180625E0,6.444160623E0
1.513046579E1,-1.585644725E0,9.831941823E-1,-4.444930547E0,4.820616928E0
1.514054779E1,-6.112033126E-1,9.206679319E-1,-1.715116990E0,2.040300276E0
1.515062879E1,4.695261544E-1,6.913546059E-1,2.227761682E0,2.379358760E0
1.516071079E1,1.603653272E0,4.058262947E-1,6.669454626E0,6.871537223E0
1.517079179E1,3.353322628E0,-1.425697356E-1,1.211927479E1,1.257544911E1
1.518087279E1,5.600015255E0,-1.181088007E0,1.936218691E1,2.019032990E1
1.519095479E1,7.558876938E0,-2.101691765E0,2.665464014E1,2.778531212E1
1.520103579E1,9.675394757E0,-2.536317497E0,3.232214045E1,3.383440458E1
1.521111679E1,1.285312725E1,-3.763746296E0,3.664864032E1,3.901911716E1
1.522119879E1,1.559920309E1,-5.075749222E0,3.929528192E1,4.258189225E1
1.523127979E1,1.598408670E1,-4.884997845E0,3.834848906E1,4.183253333E1
1.524136079E1,1.439967369E1,-2.996840694E0,3.498409239E1,3.795020918E1
1.525144279E1,1.260161278E1,-1.407121629E0,3.078437887E1,3.329352217E1
1.526152379E1,1.063374989E1,-1.519576304E0,2.613578863E1,2.825712647E1
1.527160479E1,8.336135620E0,-1.667545797E0,2.137564521E1,2.300413168E1
1.528168679E1,5.760361111E0,-1.112611410E0,1.664716096E1,1.765071195E1
1.529176779E1,3.206099386E0,-2.476365995E-1,1.204969760E1,1.247139164E1
1.530184879E1,1.202121172E0,6.280660978E-1,7.647649366E0,7.766988036E0
1.531193079E1,-3.445150226E-2,9.024244729E-1,3.383108345E0,3.501568064E0
1.532201179E1,-8.023780283E-1,8.375744659E-1,-5.044153208E-1,1.264822637E0
1.533209279E1,-1.269454492E0,7.724289552E-1,-4.107868386E0,4.368380006E0
1.534217479E1,-1.607375025E0,5.374319163E-1,-7.478887028E0,7.668522589E0
1.535225579E1,-1.821008603E0,3.813966277E-1,-1.011931069E1,1.028892534E1
1.536233679E1,-2.139701445E0,3.012899195E-1,-1.206298131E1,1.225498331E1
1.537241879E1,-2.679688886E0,2.120989039E-1,-1.338805159E1,1.365524236E1
1.538249979E1,-3.312870128E0,1.955426589E-1,-1.427495141E1,1.465563316E1
1.539258079E1,-3.866157062E0,1.318612911E-1,-1.467767839E1,1.517889327E1
1.540266279E1,-4.332617229E0,2.449021491E-1,-1.475347000E1,1.537844030E1
1.541274379E1,-4.684302692E0,5.241842452E-1,-1.500520199E1,1.572811329E1
1.542282479E1,-4.736427989E0,7.863714217E-1,-1.512567568E1,1.586941067E1
1.543290679E1,-4.427311133E0,1.011615597E0,-1.493233633E1,1.560766216E1
1.544298779E1,-4.143272107E0,1.148051969E0,-1.469518028E1,1.531120670E1
1.545306879E1,-4.134292538E0,1.420387646E0,-1.431463647E1,1.496725402E1
1.546315079E1,-4.086885653E0,1.680902300E0,-1.397009045E1,1.465235456E1
1.547323179E1,-3.914768182E0,1.800980574E0,-1.358675050E1,1.425372689E1
1.548331279E1,-3.715786556E0,1.861147985E0,-1.307331234E1,1.371796039E1
1.549339479E1,-3.577726778E0,1.810069194E0,-1.259882015E1,1.322145032E1
1.550347579E1,-3.733363579E0,1.569722026E0,-1.210178109E1,1.276147078E1
1.551355679E1,-3.741289480E0,1.314428789E0,-1.159465091E1,1.225401566E1
1.552363879E1,-3.530657862E0,1.022936903E0,-1.114377913E1,1.173438358E1
1.553371600E1,-3.363337154E0,7.049493092E-1,-1.064296160E1,1.118398953E1
1.554379800E1,-3.185290900E0,5.124148234E-1,-1.014646867E1,1.064704060E1
1.555387900E1,-3.005748927E0,3.563059330E-1,-9.724614864E0,1.018477367E1
1.556396000E1,-2.894288425E0,2.323012532E-1,-9.304204152E0,9.746747368E0
1.557404200E1,-2.816776565E0,7.684096523E-2,-8.791485200E0,9.232028313E0
1.558412300E1,-2.686554102E0,-1.153775516E-1,-8.335815777E0,8.758807544E0
1.559420400E1,-2.531503485E0,-1.710586859E-1,-7.968897148E0,8.363079141E0
1.560428600E1,-2.240287002E0,-1.775621054E-1,-7.609542477E0,7.934453406E0
1.561436700E1,-1.866335634E0,-2.766583773E-1,-6.968464862E0,7.219366391E0
1.562444800E1,-1.346881713E0,-3.639804766E-1,-6.274714360E0,6.427955541E0
1.563453000E1,-7.512276091E-1,-4.165759622E-1,-5.183025164E0,5.253725183E0
1.564461100E1,1.369969006E-1,-5.980368447E-1,-3.165603617E0,3.224509649E0
1.565469200E1,1.271698361E0,-1.233555073E0,-5.509889781E-2,1.772543575E0
1.566477400E1,2.513794023E0,-2.543601082E0,4.144692981E0,5.474262211E0
1.567485500E1,4.061483594E0,-4.406637425E0,9.517155653E0,1.124679306E1
1.568493600E1,5.169961900E0,-6.642178534E0,1.609966511E1,1.816717530E1
1.569501800E1,5.752325867E0,-8.508110418E0,2.263370173E1,2.485481140E1
1.570509900E1,8.165529070E0,-1.046070155E1,2.822914329E1,3.119273429E1
1.571518000E1,1.174492552E1,-1.323446629E1,3.286002348E1,3.732124752E1
1.572526200E1,1.383709787E1,-1.464831251E1,3.417394663E1,3.967237030E1
1.573534300E1,1.504718851E1,-1.401281489E1,3.301957996E1,3.889819435E1
1.574542400E1,1.532383197E1,-1.304913762E1,3.066314504E1,3.667871702E1
1.575550600E1,1.435590261E1,-1.254621158E1,2.604161805E1,3.227483905E1
1.576558700E1,1.311222089E1,-1.063768273E1,2.121236054E1,2.711189537E1
1.577566800E1,1.068937680E1,-7.464260802E0,1.779303279E1,2.205833134E1
1.578575000E1,7.414501582E0,-4.522402062E0,1.366440036E1,1.619082429E1
1.579583100E1,4.820906514E0,-1.783023044E0,9.016093125E0,1.037835469E1
1.580591200E1,3.101731557E0,1.114748714E0,4.737960836E0,5.771626827E0
1.581599400E1,1.778148513E0,2.943200384E0,9.318222266E-1,3.562658178E0
1.582607500E1,1.092301691E0,3.669580981E0,-2.258836709E0,4.445367346E0
1.583615600E1,5.285283610E-1,3.701244239E0,-5.272417397E0,6.463508053E0
1.584623800E1,1.670014492E-1,3.527278463E0,-8.014179740E0,8.757662916E0
1.585631900E1,-1.643443282E-1,3.254536259E0,-1.035788995E1,1.085840226E1
1.586640000E1,-7.451948905E-1,3.104691417E0,-1.221334947E1,1.262380013E1
1.587648100E1,-1.493132418E0,3.586651968E0,-1.424612932E1,1.476637116E1
1.588656300E1,-1.614293450E0,3.976113660E0,-1.596628661E1,1.653292869E1
1.589664400E1,-1.647721836E0,3.620600025E0,-1.701373694E1,1.747257784E1
1.590672500E1,-1.647675497E0,3.201433600E0,-1.751913050E1,1.788529969E1
1.591680700E1,-1.600032237E0,2.191654833E0,-1.731344182E1,1.752480305E1
1.592688800E1,-1.799421122E0,9.747225901E-1,-1.704015583E1,1.716260211E1
1.593697000E1,-2.874605235E0,2.108169749E-1,-1.714105889E1,1.738170587E1
1.594705100E1,-2.820324363E0,6.560444400E-2,-1.675303415E1,1.698889893E1
1.595713200E1,-2.770693489E0,-3.210038070E-1,-1.589348293E1,1.613637460E1
1.596721300E1,-3.091956182E0,-8.056847019E-1,-1.507919383E1,1.541400037E1
1.597729500E1,-2.945563536E0,-9.670001724E-1,-1.429633936E1,1.462862786E1
1.598737600E1,-2.821872998E0,-1.059251255E0,-1.345632017E1,1.378976189E1
1.599745700E1,-2.549118807E0,-1.139854465E0,-1.266719515E1,1.297131866E1
1.600753900E1,-2.430606855E0,-1.149377898E0,-1.214166378E1,1.243579184E1
1.601762000E1,-2.205074046E0,-1.144384742E0,-1.153514496E1,1.179964141E1
1.602770100E1,-1.953030547E0,-1.178654907E0,-1.096311303E1,1.119791958E1
1.603778300E1,-1.789311286E0,-1.170128717E0,-1.049546207E1,1.071100183E1
1.604786400E1,-1.631564225E0,-1.087512968E0,-9.971907063E0,1.016285475E1
1.605794500E1,-1.598522779E0,-8.303516927E-1,-9.406661403E0,9.577579953E0
1.606802700E1,-1.548452779E0,-4.492290802E-1,-8.773691538E0,8.920604014E0
1.607810800E1,-1.467365054E0,-9.013855688E-2,-8.013610221E0,8.147345208E0
1.608818900E1,-1.328388724E0,7.958557516E-2,-7.005433298E0,7.130711477E0
1.609827100E1,-1.343858995E0,2.873910148E-1,-5.689588752E0,5.853201753E0
1.610835200E1,-1.367907570E0,5.775503938E-1,-4.003779761E0,4.270244484E0
1.611843300E1,-9.916864590E-1,5.891894227E-1,-1.535953040E0,1.920869061E0
1.612851500E1,-4.010624219E-1,-1.074519432E-1,1.914530432E0,1.959036437E0
1.613859600E1,3.014318606E-1,-1.314376311E0,5.554665420E0,5.716008588E0
1.614867700E1,1.786801076E0,-2.913692703E0,9.283420808E0,9.892631862E0
1.615875900E1,3.804901631E0,-4.573808151E0,1.348418216E1,1.473839088E1
1.616884000E1,4.458196126E0,-5.618801190E0,1.836625171E1,1.971714081E1
1.617892100E1,4.102627527E0,-6.296739652E0,2.331199044E1,2.449345588E1
1.618900300E1,5.394006153E0,-7.812116924E0,2.842707154E1,2.997036652E1
1.619908400E1,6.964234986E0,-1.001718556E1,3.184191331E1,3.409914982E1
1.620916500E1,8.334591955E0,-1.047130606E1,3.248849607E1,3.513710362E1
1.621924700E1,9.585693791E0,-9.810541452E0,3.159511637E1,3.444392003E1
1.622932800E1,9.916115270E0,-9.053653300E0,2.954912416E1,3.245687475E1
1.623940900E1,9.241544804E0,-7.891310443E0,2.657743584E1,2.922394612E1
1.624949100E1,7.376709273E0,-6.668724309E0,2.280806102E1,2.488162718E1
1.625957200E1,4.890278173E0,-5.122250959E0,1.800929440E1,1.935166557E1
1.626965300E1,2.656813409E0,-3.258224390E0,1.282064597E1,1.349235512E1
1.627973500E1,8.359020160E-1,-1.489767345E0,7.787856241E0,7.973007197E0
1.628981600E1,-3.642480598E-1,3.475234151E-2,3.270469337E0,3.290874360E0
1.629989700E1,-9.788426113E-1,1.114662614E0,-6.397210604E-1,1.615502595E0
1.630997900E1,-1.408238155E0,1.630168202E0,-4.146693898E0,4.672863507E0
1.632006000E1,-1.603138278E0,1.808250417E0,-7.162952610E0,7.559610572E0
1.633014100E1,-1.510673041E0,1.863778647E0,-9.639047880E0,9.933128808E0
1.634022200E1,-1.624760258E0,1.915802786E0,-1.139744654E1,1.167098685E1
1.635030400E1,-1.832821587E0,1.950952739E0,-1.273698752E1,1.301523348E1
1.636038500E1,-1.950945868E0,1.873654740E0,-1.387417273E1,1.413539673E1
1.637046600E1,-1.907803357E0,1.633125578E0,-1.480266146E1,1.501417993E1
1.638054800E1,-1.780462987E0,1.361960367E0,-1.560607707E1,1.576624959E1
1.639062900E1,-1.655536493E0,1.163138663E0,-1.603042004E1,1.615760066E1
1.640071000E1,-1.686248409E0,1.028280820E0,-1.630748918E1,1.642665512E1
1.641079200E1,-1.745133964E0,9.286632684E-1,-1.645783747E1,1.657613713E1
1.642087300E1,-1.716655392E0,8.240755838E-1,-1.629253434E1,1.640343506E1
1.643095400E1,-1.835958472E0,7.098036676E-1,-1.583918919E1,1.596103001E1
1.644103600E1,-2.019823583E0,6.747198620E-1,-1.531772865E1,1.546504915E1
1.645111700E1,-2.085348213E0,7.552307591E-1,-1.489060826E1,1.505487512E1
1.646119800E1,-2.143246319E0,7.994218954E-1,-1.430692516E1,1.448863995E1
1.647128000E1,-2.200978657E0,8.076630342E-1,-1.357263182E1,1.377363282E1
1.648136100E1,-2.338678685E0,8.380614658E-1,-1.280559173E1,1.304434531E1
1.649144200E1,-2.394137479E0,9.246240118E-1,-1.199976121E1,1.227114880E1
1.650152400E1,-2.429697613E0,1.106359348E0,-1.119995333E1,1.151374900E1
1.651160500E1,-2.474632296E0,1.175765140E0,-1.047162648E1,1.082410227E1
1.652168600E1,-2.380575447E0,1.183778895E0,-9.705058851E0,1.006263580E1
1.653176775E1,-2.216886153E0,1.171924104E0,-8.779938118E0,9.131007813E0
1.654184875E1,-1.905728180E0,1.069653379E0,-7.712525393E0,8.016171541E0
1.655192975E1,-1.583661641E0,6.519054884E-1,-6.346525185E0,6.573533820E0
1.656201175E1,-1.240851813E0,3.088196714E-1,-4.949856330E0,5.112353714E0
1.657209275E1,-8.612290844E-1,1.899620032E-1,-3.757626016E0,3.859735013E0
1.658217375E1,-4.391101080E-1,4.008631781E-2,-2.363130571E0,2.403915701E0
1.659225475E1,3.550297782E-2,-1.944403857E-1,-3.308570963E-1,3.854010161E-1
1.660233675E1,5.111499976E-1,-4.245366539E-1,2.429617506E0,2.518838406E0
1.661241775E1,8.824277262E-1,-8.296269304E-1,5.729509447E0,5.856128247E0
1.662249875E1,1.604418088E0,-1.886697686E0,9.631058829E0,9.944399415E0
1.663258075E1,2.934640353E0,-3.658592309E0,1.445423289E1,1.519612649E1
1.664266175E1,3.918371821E0,-5.837584119E0,1.975054494E1,2.096461427E1
1.665274275E1,4.560262783E0,-7.374727651E0,2.441625114E1,2.591015099E1
1.666282475E1,6.284971545E0,-8.778409656E0,2.884640812E1,3.080059423E1
