"Time (s)","Linear Acceleration x (m/s^2)","Linear Acceleration y (m/s^2)","Linear Acceleration z (m/s^2)","Absolute acceleration (m/s^2)"
8.113833348E-3,3.012280852E-2,-2.196342838E-1,5.730195326E-1,6.144086481E-1
1.819283335E-2,1.065181428E-1,2.686061767E-1,4.544467700E-1,5.385325056E-1
2.827283333E-2,1.389769140E-1,3.976729372E-1,2.817732292E-1,5.068081494E-1
3.835283333E-2,1.397157097E-1,2.899730721E-1,6.902345717E-2,3.291946229E-1
4.843183333E-2,-4.773316026E-2,1.822699910E-1,-6.978593409E-2,2.009250627E-1
5.851183334E-2,-3.095688459E-1,6.578176081E-2,-8.806199133E-2,3.285042233E-1
6.859083334E-2,-3.874534661E-1,-4.322846532E-2,1.534543276E-2,3.901594173E-1
7.867083335E-2,-3.923695126E-1,-4.485633016E-2,5.898378789E-2,3.993056624E-1
8.874983335E-2,-3.680369094E-1,6.926026940E-2,4.223268449E-2,3.768710008E-1
9.882983332E-2,-2.789674428E-1,2.402448419E-1,1.670841873E-2,3.685370937E-1
1.089098333E-1,-2.411125687E-1,3.662567246E-1,-5.283661008E-2,4.416683897E-1
1.189888333E-1,-1.575470862E-1,4.289453083E-1,-1.257741934E-1,4.739560208E-1
1.290688333E-1,6.264385253E-2,4.931874973E-1,-2.087771738E-1,5.392087425E-1
1.391478333E-1,2.357781538E-1,5.335288998E-1,-2.899903214E-1,6.514129346E-1
1.492278333E-1,3.213755438E-1,5.523130801E-1,-4.664142662E-1,7.911221438E-1
1.593068333E-1,4.023644507E-1,5.377687159E-1,-5.189655322E-1,8.487741552E-1
1.693868333E-1,4.589003018E-1,4.640712869E-1,-4.583018392E-1,7.974912051E-1
1.794658333E-1,4.654790041E-1,3.279717878E-1,-4.298609823E-1,7.134540356E-1
1.895458333E-1,5.516196004E-1,3.040040508E-1,-3.478075898E-1,7.194947991E-1
1.996258333E-1,5.671921974E-1,3.833346874E-1,-2.566734713E-1,7.311181452E-1
2.097048333E-1,5.075245777E-1,4.089007607E-1,-2.350943220E-1,6.928566730E-1
2.197848333E-1,6.080468394E-1,4.887345502E-1,-1.486806607E-1,7.941588999E-1
2.298638333E-1,1.032192899E0,7.496422827E-1,1.988842696E-1,1.291100572E0
2.399438333E-1,1.582571720E0,8.301774457E-1,5.817441630E-1,1.879402595E0
2.500228333E-1,1.648914375E0,8.075820503E-1,7.813605040E-1,1.995402622E0
2.601028333E-1,1.529260024E0,8.710898289E-1,1.026204473E0,2.037284794E0
2.701818333E-1,1.625470988E0,1.034003782E0,1.310561587E0,2.329998160E0
2.802618333E-1,1.461334966E0,1.162525290E0,1.546214318E0,2.424405835E0
2.903418333E-1,1.006781923E0,1.123780615E0,1.376925146E0,2.042649155E0
3.004208333E-1,1.013552561E0,1.280398141E0,9.888091904E-1,1.909044737E0
3.105008333E-1,1.010951573E0,1.531978979E0,4.580311131E-1,1.891765095E0
3.205798333E-1,1.001013353E0,1.775074631E0,-4.074105978E-1,2.078196592E0
3.306598333E-1,9.870602882E-1,1.996075702E0,-1.098588910E0,2.483043256E0
3.407388333E-1,1.064001752E0,2.063634285E0,-1.533135851E0,2.782299720E0
3.508188333E-1,4.504687630E-1,1.455297862E0,-1.959244675E0,2.481824666E0
3.608978333E-1,-4.192482859E-2,1.201232688E0,-1.344095954E0,1.803139372E0
3.709778333E-1,-1.028485472E0,1.108073679E0,-5.456311744E-1,1.607271919E0
3.810578333E-1,-1.183071821E0,1.079074413E-1,7.193537056E-2,1.190158664E0
3.911368333E-1,-1.273221268E0,-5.604168094E-1,5.633230948E-1,1.500830539E0
4.012168333E-1,-1.641849916E0,-7.783747695E-1,5.455142301E-1,1.897135789E0
4.112958333E-1,-1.818029447E0,-1.260029365E0,8.375516617E-1,2.365247948E0
4.213758333E-1,-2.096765925E0,-1.438145932E0,1.122585298E0,2.779368421E0
4.314548333E-1,-2.090728090E0,-1.438228817E0,1.136629726E0,2.780570662E0
4.415348333E-1,-1.434906136E0,-1.612598781E0,1.010286013E0,2.383297774E0
4.516148333E-1,-3.372343621E-1,-1.992900956E0,9.441171670E-1,2.230860475E0
4.616938333E-1,4.871596026E-1,-2.429489452E0,8.316424656E-1,2.613689474E0
4.717738333E-1,7.227354428E-1,-2.773812979E0,3.371545476E-1,2.886184012E0
4.818528333E-1,6.048590836E-1,-2.902142113E0,5.097894967E-2,2.964942193E0
4.919328333E-1,2.986342603E-1,-2.512128443E0,-4.348311156E-1,2.566914458E0
5.020118333E-1,-6.994877905E-2,-2.026918302E0,-1.246036978E0,2.380314850E0
5.120918333E-1,-6.505992204E-2,-1.570367997E0,-1.893023788E0,2.460452703E0
5.221708333E-1,2.555972913E-1,-1.016419597E0,-4.211679268E-1,1.129522551E0
5.322508333E-1,4.034935480E-1,-8.608661916E-1,-5.440916026E-1,1.095414677E0
5.423308333E-1,5.192269027E-1,-1.245715966E0,-1.646565403E0,2.128986254E0
5.524098333E-1,1.173396579E0,-1.348024406E0,-4.726497370E-1,1.848628439E0
5.624898333E-1,1.563674981E0,-1.316181054E0,-1.745768094E-1,2.051313988E0
5.725688333E-1,1.621688278E0,-8.921324962E-1,4.006278276E-2,1.851317986E0
5.826488333E-1,1.249168746E0,-5.572352663E-2,2.394282782E-1,1.273127476E0
5.927278333E-1,9.762417698E-1,-4.290863724E-1,8.193077642E-1,1.344778168E0
6.028078333E-1,6.996345556E-1,-1.402865149E0,2.604366224E0,3.039776729E0
6.128868333E-1,-1.552016949E-1,-2.187909106E0,2.273968134E0,3.159424773E0
6.229668333E-1,-1.155479322E0,-2.914087974E0,2.148202711E0,3.800238950E0
6.330468333E-1,-1.237782171E0,-3.169428573E0,2.993740500E0,4.532092714E0
6.431258333E-1,-7.843933817E-1,-2.740489989E0,3.314160901E0,4.371409479E0
6.532058333E-1,-4.305701765E-1,-2.034467935E0,2.526267303E0,3.272075327E0
6.632848333E-1,-1.325280198E-1,-1.254896971E0,1.745022574E0,2.153470192E0
6.733648333E-1,4.877937332E-2,-6.346396838E-1,1.070898836E0,1.245781390E0
6.834438333E-1,-1.093853250E-2,-3.006525730E-1,1.390128744E-1,3.314154498E-1
6.935238333E-1,1.771625943E-2,-7.821089476E-2,-6.969927835E-1,7.015908710E-1
7.036028333E-1,5.779252734E-2,-1.049823716E-1,-1.377920927E0,1.383122321E0
7.136828333E-1,-1.290285709E-1,-6.591449261E-2,-1.501995335E0,1.508967554E0
7.237628333E-1,6.255329378E-1,2.220363200E-1,-9.541726238E-1,1.162341163E0
7.338418333E-1,9.228528902E-1,2.653460616E-1,-9.806207496E-1,1.372473331E0
7.439218333E-1,1.085159756E0,2.983620724E-1,-8.519644636E-1,1.411536422E0
7.540008333E-1,1.243905083E0,1.835733354E-1,-7.252243102E-1,1.451533439E0
7.640808333E-1,1.107942555E0,-1.189630643E-1,-7.633200896E-1,1.350683706E0
7.741598333E-1,8.850470596E-1,-4.053064772E-1,-8.649745184E-1,1.302214481E0
7.842398333E-1,5.522007040E-1,-5.815681618E-1,-8.900532264E-1,1.198057549E0
7.943188333E-1,3.520355287E-1,-6.006534737E-1,-7.067453545E-1,9.920698590E-1
8.043988333E-1,2.327757731E-1,-3.271090311E-1,-4.010535049E-1,5.674758079E-1
8.144788333E-1,7.933337744E-2,-1.682638630E-2,-4.083192551E-1,4.162949989E-1
8.245578333E-1,8.493744029E-2,3.099565163E-1,1.241636363E0,1.282555367E0
8.346378333E-1,-3.226140571E-1,2.777509296E-1,2.805792278E-1,5.098530296E-1
8.447168333E-1,-6.229698108E-1,-1.010879798E-1,-7.017594337E-2,6.350077384E-1
8.547968333E-1,-3.355406795E-1,-2.816355273E-2,-1.412564510E-1,3.651494465E-1
8.648758333E-1,-6.116246776E-1,-3.779143184E-2,-3.590202105E-1,7.102171851E-1
8.749558333E-1,-1.139490257E0,-1.401055728E-1,-4.248510879E-1,1.224159329E0
8.850348333E-1,-1.541093327E0,-1.978323555E-1,-6.743231285E-1,1.693758532E0
8.951148333E-1,-1.661671392E0,-1.690795496E-2,-1.243480575E0,2.075495515E0
9.051948333E-1,-1.400279802E0,1.633279359E-1,-1.924633251E0,2.385722677E0
9.152738333E-1,-9.144453250E-1,2.565145732E-1,-2.420075435E0,2.599764430E0
9.253538333E-1,-2.767015006E-1,4.256857780E-1,-2.789882004E0,2.835703387E0
9.354328333E-1,3.008522554E-1,6.994765346E-1,-3.111408699E0,3.203223937E0
9.455128333E-1,8.441449821E-1,1.032705700E0,-2.915911721E0,3.206493876E0
9.555918333E-1,1.232997102E0,1.320620406E0,-2.504278849E0,3.087998164E0
9.656718333E-1,1.416841456E0,1.570763999E0,-2.338352995E0,3.153194251E0
9.757508333E-1,1.539180410E0,1.735638524E0,-2.045456023E0,3.092799341E0
9.858308333E-1,1.748384577E0,1.816377316E0,-1.601507928E0,2.986788045E0
9.959108333E-1,1.835323757E0,1.749549196E0,-1.459152201E0,2.925484716E0
1.005989833E0,1.732228720E0,1.622672949E0,-1.472955723E0,2.793435591E0
1.016069833E0,1.471719914E0,1.378053512E0,-1.287855679E0,2.392396965E0
1.026148833E0,9.653674105E-1,8.460367025E-1,-9.923882711E-1,1.622512502E0
1.036228833E0,4.975376795E-1,2.548943098E-1,-6.803434217E-1,8.805577909E-1
1.046307833E0,2.317610984E-1,-1.199611840E-1,-3.186475253E-1,4.118739343E-1
1.056387833E0,-2.033791796E-3,-3.132694025E-1,-2.166603899E-1,3.808983846E-1
1.066466833E0,-7.629702799E-3,-3.222616893E-1,-7.133953929E-2,3.301516903E-1
1.076546833E0,4.876471873E-1,1.361858918E-1,5.024535799E-1,7.133063692E-1
1.086626833E0,8.544487263E-1,5.914628202E-1,9.108704835E-1,1.381881301E0
1.096705833E0,7.895849052E-1,7.834062986E-1,8.489291739E-1,1.399232109E0
1.106785833E0,6.754187505E-1,8.764835930E-1,8.276084715E-1,1.381792227E0
1.116864833E0,6.476654530E-1,8.846427977E-1,6.949059123E-1,1.298059184E0
1.126944833E0,7.434672575E-1,8.060111958E-1,6.615031081E-1,1.280618590E0
1.137023833E0,8.425044727E-1,7.697856483E-1,9.140262258E-1,1.462131209E0
1.147103833E0,6.341925180E-1,6.158555035E-1,6.868554658E-1,1.119485856E0
1.157182833E0,4.592909689E-1,5.099928336E-1,4.703582132E-1,8.320322909E-1
1.167262833E0,6.302621658E-1,6.824798481E-1,1.464628118E-1,9.404575993E-1
1.177342833E0,8.360730471E-1,9.692818290E-1,-1.858560884E-1,1.293471256E0
1.187421833E0,8.738508841E-1,1.141452217E0,-4.182653689E-1,1.497155453E0
1.197501833E0,7.607990626E-1,9.917203729E-1,-8.926745331E-1,1.535966254E0
1.207580833E0,5.260952980E-1,5.713697407E-1,-1.559200400E0,1.741937292E0
1.217660833E0,3.541286492E-1,1.284522182E-1,-1.833161749E0,1.871467090E0
1.227739833E0,9.709931628E-1,9.833009671E-1,-1.265915757E0,1.874100109E0
1.237819833E0,1.277659889E0,1.704346857E0,-7.715249026E-1,2.265494135E0
1.247898833E0,1.091407945E0,1.616507645E0,-3.537623942E-1,1.982275485E0
1.257978833E0,7.381877334E-1,1.260917265E0,3.274072391E-1,1.497340635E0
1.268058833E0,2.548538178E-2,8.384261128E-1,1.250769714E0,1.505998914E0
1.278137833E0,-7.790740965E-1,2.936438079E-1,4.180431163E0,4.262533031E0
1.288217833E0,-1.161361840E0,-4.739211410E-1,7.313059992E0,7.419852358E0
1.298296833E0,-1.577197691E0,-1.283152910E0,5.310661696E0,5.686577318E0
1.308376833E0,-1.648506971E0,-1.234113920E0,4.757530298E0,5.184082072E0
1.318455833E0,-1.218043433E0,-8.894864850E-1,4.598075557E0,4.839123355E0
1.328536333E0,-7.991724385E-1,-9.060816870E-1,4.113109830E0,4.286879178E0
1.338615333E0,-5.595867240E-1,-8.441843777E-1,3.505684696E0,3.649056008E0
1.348695333E0,-6.110545009E-1,-7.341306429E-1,2.690787486E0,2.855288550E0
1.358775333E0,-6.951313224E-1,-7.084248941E-1,1.982183302E0,2.216782359E0
1.368854333E0,-7.792753138E-1,-8.447157434E-1,1.259891371E0,1.705327232E0
1.378934333E0,-7.894013757E-1,-9.657420708E-1,5.471409255E-1,1.362048263E0
1.389013333E0,-7.340113597E-1,-9.910498434E-1,-9.179602325E-2,1.236680629E0
1.399093333E0,-8.407017030E-1,-1.005382100E0,-6.542741954E-1,1.464802800E0
1.409172333E0,-1.010710594E0,-9.057435717E-1,-1.172987128E0,1.793824441E0
1.419252333E0,-1.082576968E0,-6.500787451E-1,-1.631243359E0,2.062893638E0
1.429331333E0,-9.914198991E-1,-2.465347648E-1,-1.840932698E0,2.105404001E0
1.439411333E0,-1.034394011E0,4.861579746E-2,-1.767807419E0,2.048774643E0
1.449491333E0,-1.102090515E0,2.166781508E-1,-1.678019915E0,2.019233458E0
1.459570333E0,-1.112327528E0,2.600889031E-1,-1.579529414E0,1.949315761E0
1.469650333E0,-1.040329958E0,2.626651132E-1,-1.485237215E0,1.832268803E0
1.479729333E0,-9.537880231E-1,2.430430269E-1,-1.375036495E0,1.691007649E0
1.489809333E0,-8.246358202E-1,1.487366478E-1,-1.088514158E0,1.373684788E0
1.499888333E0,-8.244211543E-1,-9.086733922E-2,-7.164996797E-1,1.096037820E0
1.509968333E0,-9.467491449E-1,-4.824751058E-1,-5.033803636E-1,1.175800987E0
1.520047333E0,-9.364311482E-1,-7.905238219E-1,-3.499704748E-1,1.274484422E0
1.530127333E0,-8.340139501E-1,-9.121175484E-1,-3.585144264E-1,1.286883944E0
1.540206333E0,-6.996896656E-1,-9.347442265E-1,-4.649670804E-1,1.256784302E0
1.550286333E0,-6.095887502E-1,-9.121567979E-1,-5.526612818E-1,1.228439238E0
1.560366333E0,-6.071725345E-1,-8.764515795E-1,-5.936777455E-1,1.220360243E0
1.570445333E0,-6.402986191E-1,-8.674093721E-1,-6.960455346E-1,1.283300716E0
1.580525333E0,-6.633642769E-1,-7.863967109E-1,-8.458552927E-1,1.331894563E0
1.590604333E0,-5.990190308E-1,-6.118677755E-1,-9.784695590E-1,1.300234076E0
1.600684333E0,-5.082266821E-1,-4.932398298E-1,-9.086637443E-1,1.152063232E0
1.610763333E0,-5.915531597E-1,-5.049349920E-1,-6.536280781E-1,1.015935112E0
1.620843333E0,-7.608682059E-1,-4.569747405E-1,-4.846926624E-1,1.011273117E0
1.630922333E0,-8.317646724E-1,-2.694826012E-1,-3.311675835E-1,9.349466888E-1
1.641002333E0,-7.588769366E-1,-1.857923537E-2,-1.628455406E-1,7.763749500E-1
1.651082333E0,-6.675828968E-1,2.251992982E-1,7.521039605E-2,7.085465769E-1
1.661161333E0,-6.190992464E-1,3.533340126E-1,3.580916727E-1,7.977207828E-1
1.671241333E0,-6.215235020E-1,3.643373030E-1,5.433080757E-1,9.023396251E-1
1.681320333E0,-5.731114800E-1,3.824727347E-1,6.540876693E-1,9.500383363E-1
1.691400333E0,-4.878606838E-1,3.948298017E-1,6.951012093E-1,9.365171169E-1
1.701479333E0,-3.607885547E-1,4.662902322E-1,8.243363696E-1,1.013471959E0
1.711559333E0,-3.351072912E-1,4.499221945E-1,1.255197226E0,1.374862522E0
1.721638333E0,-4.670751478E-1,2.397889783E-1,1.560296168E0,1.646263065E0
1.731718333E0,-4.342018090E-1,1.382154603E-1,1.581277732E0,1.645622675E0
1.741797333E0,-2.156254327E-1,2.940402491E-1,1.388598527E0,1.435674011E0
1.751877333E0,3.212679550E-2,5.180949549E-1,1.125249290E0,1.239209618E0
1.761957333E0,1.933858404E-1,6.412791972E-1,8.878535038E-1,1.112169473E0
1.772036333E0,2.343759915E-1,6.640317366E-1,7.531324857E-1,1.031057124E0
1.782116333E0,2.276810758E-1,5.728514251E-1,6.138588256E-1,8.699540708E-1
1.792195333E0,2.661488843E-1,4.519423344E-1,4.920431972E-1,7.191617413E-1
1.802275333E0,3.939415365E-1,3.776869348E-1,3.880773640E-1,6.696576703E-1
1.812354333E0,5.011169064E-1,3.639641044E-1,1.931896663E-1,6.487759786E-1
1.822434333E0,6.268662491E-1,4.393113253E-1,-1.124945819E-2,7.655601121E-1
1.832513333E0,7.572077027E-1,5.689978176E-1,-2.321777308E-1,9.752069115E-1
1.842593333E0,8.371853337E-1,6.989333282E-1,-3.947116148E-1,1.159820822E0
1.852673333E0,8.274852414E-1,7.696523318E-1,-4.308041382E-1,1.209416695E0
1.862752333E0,8.097988759E-1,7.768069848E-1,-4.431522882E-1,1.206477211E0
1.872832333E0,8.319563149E-1,7.879196182E-1,-4.539287066E-1,1.232485256E0
1.882911333E0,8.917541814E-1,8.191726935E-1,-4.857211876E-1,1.304681760E0
1.892991333E0,9.156385955E-1,8.393144511E-1,-5.087668186E-1,1.342269146E0
1.903070333E0,8.698179133E-1,8.051105784E-1,-4.660271806E-1,1.273564910E0
1.913150333E0,8.267256881E-1,7.330348746E-1,-3.994174540E-1,1.174882885E0
1.923229333E0,8.030121589E-1,6.872888906E-1,-3.585886860E-1,1.116145328E0
1.933309333E0,7.981674483E-1,6.340656334E-1,-3.609240639E-1,1.081377216E0
1.943388333E0,8.016693458E-1,5.680722034E-1,-2.949528533E-1,1.025854256E0
1.953468333E0,7.824181192E-1,5.157736833E-1,-2.383377725E-1,9.669568240E-1
1.963548333E0,7.782554863E-1,5.135847051E-1,-2.666722101E-1,9.698272624E-1
1.973627333E0,7.884375353E-1,5.694729039E-1,-3.072928172E-1,1.019981378E0
1.983707333E0,7.662705946E-1,5.660027276E-1,-3.192965662E-1,1.004728824E0
1.993786333E0,6.671781233E-1,5.331874225E-1,-2.499965358E-1,8.898953554E-1
2.003866333E0,5.445023695E-1,5.533782236E-1,-1.395490640E-1,7.887865554E-1
2.013945333E0,4.558721749E-1,6.043169005E-1,-2.777719796E-2,7.574892269E-1
2.024025333E0,3.917995553E-1,6.028709572E-1,7.526594460E-2,7.229282433E-1
2.034104333E0,3.000946024E-1,5.086893430E-1,1.853608292E-1,6.190155532E-1
2.044184333E0,2.453779663E-1,4.071809484E-1,2.858054692E-1,5.546994117E-1
2.054264333E0,1.892705700E-1,3.759141321E-1,2.981313998E-1,5.157684703E-1
2.064343333E0,1.453356148E-1,4.468946524E-1,2.439089996E-1,5.294609252E-1
2.074423333E0,1.643764879E-1,5.642680049E-1,1.902730751E-1,6.177554971E-1
2.084502333E0,1.178604256E-1,5.894138096E-1,1.465937895E-1,6.186998125E-1
2.094582333E0,7.343927443E-2,5.713274945E-1,9.820281744E-2,5.843391365E-1
2.104661333E0,1.194922373E-1,5.770687294E-1,6.424511254E-2,5.928019464E-1
2.114741333E0,2.351068935E-1,6.586068361E-1,1.264115399E-1,7.106462504E-1
2.124820333E0,3.310810447E-1,6.584857987E-1,3.379287189E-1,8.108107204E-1
2.134900333E0,3.827683845E-1,6.113524166E-1,5.410919809E-1,9.016894949E-1
2.144979333E0,4.877162576E-1,6.239163288E-1,6.697745794E-1,1.037177285E0
2.155059333E0,5.315885013E-1,5.338282773E-1,7.888712525E-1,1.090814749E0
2.165139333E0,4.761250296E-1,2.893317056E-1,1.187394667E0,1.311607401E0
2.175218333E0,3.050357920E-1,-1.013735432E-1,1.831143290E0,1.859142054E0
2.185298333E0,1.319378896E-1,-5.537905984E-1,2.326294282E0,2.394939816E0
2.195377333E0,3.359386191E-2,-9.546157696E-1,2.548147584E0,2.721300411E0
2.205457333E0,-4.504314870E-2,-1.327622301E0,2.694798676E0,3.004421702E0
2.215536333E0,-8.190545797E-2,-1.674983163E0,2.948031646E0,3.391632009E0
2.225616333E0,-2.407883406E-3,-1.907472404E0,3.111225681E0,3.649408446E0
2.235695333E0,2.570330751E-1,-1.978873193E0,3.017421139E0,3.617573143E0
2.245775333E0,5.721243238E-1,-1.981870037E0,2.610101758E0,3.326825254E0
2.255854333E0,8.288790715E-1,-1.957611402E0,2.137398811E0,3.014590618E0
2.265934333E0,1.012685418E0,-1.937518176E0,1.757929133E0,2.805320530E0
2.276014333E0,1.157933764E0,-1.891488894E0,1.316409388E0,2.579045272E0
2.286093333E0,1.301615932E0,-1.778545246E0,6.904807395E-1,2.309586733E0
2.296173333E0,1.433098470E0,-1.539569542E0,2.129205108E-2,2.103449298E0
2.306252333E0,1.517561792E0,-1.239845653E0,-4.702629036E-1,2.015281180E0
2.316332333E0,1.565237650E0,-9.202219355E-1,-8.405770111E-1,2.000836581E0
2.326411333E0,1.608859925E0,-6.699909264E-1,-1.100208589E0,2.061013595E0
2.336491250E0,1.563542542E0,-5.298185492E-1,-1.262991564E0,2.078586218E0
2.346570250E0,1.810225607E0,-3.252662811E-1,-1.296334727E0,2.250155245E0
2.356650250E0,2.062243086E0,-2.060196269E-1,-1.262052501E0,2.426533979E0
2.366729250E0,2.241662706E0,-2.458825810E-1,-1.096707861E0,2.507643927E0
2.376809250E0,2.211419006E0,-5.169046810E-1,-7.866089648E-1,2.403397207E0
2.386889250E0,1.979738874E0,-9.631373555E-1,-2.315538329E-1,2.213733667E0
2.396968250E0,1.794472477E0,-1.368131080E0,3.666543353E-1,2.286121065E0
2.407048250E0,1.688455440E0,-1.625016220E0,7.984115696E-1,2.475685870E0
2.417127250E0,1.607343450E0,-1.714782675E0,1.065853273E0,2.580712264E0
2.427207250E0,1.491575012E0,-1.694391972E0,1.286747632E0,2.598360953E0
2.437286250E0,1.367758905E0,-1.578077551E0,1.371172071E0,2.498240586E0
2.447366250E0,1.315947458E0,-1.345231629E0,1.239013302E0,2.253113359E0
2.457445250E0,1.327760587E0,-1.036016978E0,1.006379489E0,1.961906989E0
2.467525250E0,1.354268939E0,-7.318177767E-1,7.717447579E-1,1.721973168E0
2.477605250E0,1.370129220E0,-4.742232227E-1,5.515707761E-1,1.551248550E0
2.487684250E0,1.347363670E0,-2.454188968E-1,3.826786298E-1,1.421992345E0
2.497764250E0,1.276184345E0,-1.390618448E-1,2.327507579E-1,1.304667618E0
2.507843250E0,1.208347872E0,-1.353938864E-1,1.220027393E-1,1.222015038E0
2.517923250E0,1.174111694E0,-1.851476982E-1,-2.280238688E-2,1.188838882E0
2.528002250E0,1.150614511E0,-2.159289032E-1,-2.015529388E-1,1.187923664E0
2.538082250E0,1.109090217E0,-2.588196918E-1,-2.531464309E-1,1.166684129E0
2.548161250E0,1.050439574E0,-3.009298772E-1,-2.429681826E-1,1.119381806E0
2.558241250E0,1.023774955E0,-2.368243669E-1,-2.809639746E-1,1.087723170E0
2.568320250E0,9.722677097E-1,-1.385874894E-1,-2.869667262E-1,1.023162203E0
2.578400250E0,9.154833519E-1,-9.494738013E-2,-2.252224678E-1,9.475494355E-1
2.588480250E0,8.518964897E-1,-6.077859074E-2,-1.875196213E-1,8.744056694E-1
2.598559250E0,8.203539772E-1,5.173952624E-2,-1.661240745E-1,8.386029064E-1
2.608639250E0,8.102868260E-1,1.507996917E-1,-1.147592086E-1,8.321508057E-1
2.618718250E0,7.403289838E-1,1.504747327E-1,3.904361308E-2,7.564747538E-1
2.628798250E0,5.978076339E-1,7.463992707E-2,2.550362509E-1,6.542083576E-1
2.638877250E0,4.937073147E-1,5.220752276E-2,4.075497615E-1,6.423156126E-1
2.648957250E0,4.476024579E-1,1.151423474E-1,4.396714407E-1,6.379002243E-1
2.659036250E0,4.438976620E-1,2.494603461E-1,4.310456282E-1,6.671401144E-1
2.669116250E0,3.959405534E-1,3.595768654E-1,4.236693656E-1,6.823197017E-1
2.679195250E0,3.275599976E-1,4.322706199E-1,4.089267808E-1,6.792455763E-1
2.689275250E0,2.866807973E-1,5.172238659E-1,3.227019846E-1,6.736786904E-1
2.699354250E0,2.795027554E-1,6.216280210E-1,1.955548650E-1,7.090732628E-1
2.709434250E0,3.021102838E-1,6.980439667E-1,6.288154185E-2,7.632103848E-1
2.719514250E0,3.330562341E-1,7.407284217E-1,-3.474707901E-2,8.129036901E-1
2.729593250E0,3.137621766E-1,7.483921480E-1,-1.133488601E-1,8.193811536E-1
2.739673250E0,2.645872392E-1,7.188236555E-1,-1.125232333E-1,7.741933434E-1
2.749752250E0,2.521886569E-1,7.145930488E-1,-2.255563438E-2,7.581234074E-1
2.759832250E0,2.433358262E-1,7.170338228E-1,3.555633366E-2,7.580330338E-1
2.769911250E0,2.649072281E-1,7.317901486E-1,8.736909628E-3,7.783116308E-1
2.779991250E0,3.412284489E-1,7.617011417E-1,-2.137917459E-2,8.349146979E-1
2.790070250E0,3.994895209E-1,8.022898816E-1,1.917009652E-2,8.964532470E-1
2.800150250E0,4.373907343E-1,8.117784508E-1,1.094820964E-1,9.285909955E-1
2.810229250E0,4.534544975E-1,7.776067378E-1,1.648908967E-1,9.151405508E-1
2.820309250E0,5.373018157E-1,7.531506121E-1,1.771127468E-1,9.419649732E-1
2.830389250E0,6.373906526E-1,7.185482517E-1,3.150655210E-1,1.010863352E0
2.840468250E0,6.352948643E-1,5.926225423E-1,5.860874748E-1,1.047997887E0
2.850548250E0,6.171828215E-1,4.117172183E-1,9.327484256E-1,1.191824370E0
2.860627250E0,6.302459398E-1,2.337282662E-1,1.201064873E0,1.376370472E0
2.870707250E0,6.764604320E-1,2.893611610E-2,1.412715953E0,1.566589410E0
2.880786250E0,6.812229891E-1,-2.060979065E-1,1.567157875E0,1.721198685E0
2.890866250E0,6.473638098E-1,-4.888909632E-1,1.688219798E0,1.873013711E0
2.900945250E0,5.847395454E-1,-7.806625658E-1,1.713004975E0,1.971228151E0
2.911025250E0,5.630191858E-1,-1.050845810E0,1.644555130E0,2.031213700E0
2.921104250E0,5.859334007E-1,-1.173361861E0,1.439082218E0,1.947062823E0
2.931184250E0,6.429390755E-1,-1.179336327E0,1.099077737E0,1.735562358E0
2.941264250E0,7.041440745E-1,-1.159768839E0,6.775098610E-1,1.516542861E0
2.951343250E0,7.826699880E-1,-1.087567786E0,1.859706938E-1,1.352760547E0
2.961423250E0,8.771503218E-1,-9.480272732E-1,-3.289783859E-1,1.332807254E0
2.971502250E0,9.332660504E-1,-8.434229241E-1,-7.573769796E-1,1.468321368E0
2.981582250E0,9.458162217E-1,-8.322211207E-1,-1.078891395E0,1.658664210E0
2.991661250E0,9.359139620E-1,-8.967798632E-1,-1.338392580E0,1.863181087E0
3.001741250E0,9.064915037E-1,-9.472461583E-1,-1.601950563E0,2.070083992E0
3.011820250E0,8.728689905E-1,-9.578216518E-1,-1.802346337E0,2.219859210E0
3.021900250E0,8.466987535E-1,-9.529590341E-1,-1.831449684E0,2.231420544E0
3.031979250E0,8.082690250E-1,-9.475363994E-1,-1.702691072E0,2.109568897E0
3.042059250E0,7.349273991E-1,-9.467628859E-1,-1.530507528E0,1.943947411E0
3.052138250E0,6.952642004E-1,-8.909759170E-1,-1.259817696E0,1.692445278E0
3.062218250E0,7.335479678E-1,-7.909694528E-1,-7.730831856E-1,1.327171017E0
3.072298250E0,7.567345168E-1,-7.402336742E-1,-1.494922543E-1,1.069084167E0
3.082377250E0,6.899373870E-1,-8.671256360E-1,5.012613326E-1,1.216216835E0
3.092457250E0,6.477631746E-1,-1.089109550E0,1.117643232E0,1.689639943E0
3.102536250E0,5.880905847E-1,-1.304877217E0,1.636273718E0,2.173924278E0
3.112616250E0,4.879033685E-1,-1.501133309E0,2.023443595E0,2.566276464E0
3.122695250E0,3.882377239E-1,-1.700428053E0,2.241740620E0,2.840349468E0
3.132775250E0,3.910307926E-1,-1.740792698E0,2.191444041E0,2.825896545E0
3.142854250E0,4.828158523E-1,-1.568759574E0,1.826399444E0,2.455575834E0
3.152934250E0,4.862414436E-1,-1.347736723E0,1.354754843E0,1.971848295E0
3.163013250E0,4.511373921E-1,-1.101426125E0,8.343777931E-1,1.453564845E0
3.173093250E0,4.725496765E-1,-8.450453802E-1,3.250344390E-1,1.021299309E0
3.183173250E0,4.986626107E-1,-6.699616172E-1,-8.046645820E-2,8.390398195E-1
3.193252250E0,4.820210695E-1,-5.825374840E-1,-3.455774617E-1,8.313350791E-1
3.203332250E0,4.753216953E-1,-5.203579735E-1,-4.873280025E-1,8.568498798E-1
3.213411250E0,4.450749989E-1,-4.725664873E-1,-5.538225389E-1,8.533054811E-1
3.223491250E0,3.679258854E-1,-4.595845722E-1,-5.466795802E-1,8.033965394E-1
3.233570250E0,2.317843594E-1,-4.908381591E-1,-4.343042815E-1,6.951735730E-1
3.243650250E0,1.108273946E-1,-4.997379868E-1,-3.040862042E-1,5.953899448E-1
3.253729250E0,-1.314878002E-2,-4.497295287E-1,-1.554476434E-1,4.760183917E-1
3.263809250E0,-7.543083608E-2,-3.775581499E-1,1.782874525E-2,3.854320067E-1
3.273888250E0,-1.331919712E-1,-3.109445496E-1,1.905496484E-1,3.882470639E-1
3.283968250E0,-2.795229283E-1,-2.911236580E-1,3.607597572E-1,5.413258298E-1
3.294047250E0,-3.683806526E-1,-2.489361432E-1,4.941786003E-1,6.647450621E-1
3.304127250E0,-3.851174303E-1,-1.687574411E-1,5.820482183E-1,7.180352620E-1
3.314207250E0,-4.309195476E-1,-1.265214676E-1,6.254871833E-1,7.700217885E-1
3.324286250E0,-4.837175661E-1,-1.579474743E-1,6.333838481E-1,8.124685762E-1
3.334365708E0,-5.156090842E-1,-2.431370940E-1,6.484047604E-1,8.633638326E-1
3.344444708E0,-5.503511200E-1,-3.043839736E-1,6.365594709E-1,8.948429576E-1
3.354524708E0,-5.663656204E-1,-2.887337548E-1,5.297361034E-1,8.275007773E-1
3.364603708E0,-5.686296623E-1,-2.413740854E-1,3.345437658E-1,7.025102655E-1
3.374683708E0,-5.682658924E-1,-2.232845543E-1,1.574409592E-1,6.305313413E-1
3.384762708E0,-5.892416822E-1,-2.308511437E-1,-2.105699301E-2,6.331993427E-1
3.394842708E0,-5.892398550E-1,-2.481513007E-1,-1.874237269E-1,6.662659590E-1
3.404921708E0,-5.743451694E-1,-2.001957270E-1,-3.606071448E-1,7.070984484E-1
3.415001708E0,-5.528451768E-1,-1.256965716E-1,-5.303412902E-1,7.763371057E-1
3.425080708E0,-5.286762225E-1,-6.146710038E-2,-6.185137939E-1,8.159877854E-1
3.435160708E0,-5.210510878E-1,-4.950055428E-2,-5.533144158E-1,7.616438694E-1
3.445240708E0,-5.210200976E-1,-7.006674662E-2,-4.253393304E-1,6.762283912E-1
3.455319708E0,-4.779376665E-1,-6.364986598E-2,-3.061841851E-1,5.711606374E-1
3.465399708E0,-4.406486566E-1,-4.075845525E-2,-2.221105796E-1,4.951419997E-1
3.475478708E0,-3.754807073E-1,-1.816481397E-2,-1.111777890E-1,3.920155900E-1
3.485558708E0,-3.314298311E-1,-4.590239704E-2,2.550146163E-2,3.355638353E-1
3.495637708E0,-2.659067365E-1,-5.109896377E-2,1.716356599E-1,3.205874239E-1
3.505717708E0,-1.485080217E-1,-1.316632167E-2,2.095419896E-1,2.571688743E-1
3.515796708E0,-6.292020656E-2,1.023876697E-2,2.123357892E-1,2.216986065E-1
3.525876708E0,-1.343631685E-2,1.144007742E-2,2.167141843E-1,2.174314781E-1
3.535955708E0,7.090370245E-2,1.400978252E-2,2.434774750E-1,2.539781287E-1
3.546035708E0,1.785475074E-1,1.955688983E-2,2.117276788E-1,2.776513899E-1
3.556114708E0,2.512892821E-1,-3.598946616E-2,1.420160043E-1,2.908781368E-1
3.566194708E0,3.229202320E-1,-9.075668067E-2,1.098709363E-1,3.529672420E-1
3.576274708E0,3.799403787E-1,-1.629585381E-1,8.238843799E-2,4.215424429E-1
3.586353708E0,4.728773399E-1,-1.569291817E-1,3.328819871E-3,4.982477573E-1
3.596433708E0,5.778921635E-1,-3.047729596E-2,-9.942488551E-2,5.871741872E-1
3.606512708E0,7.044626746E-1,1.548208219E-1,-8.909928739E-2,7.267570638E-1
3.616592708E0,7.343987377E-1,2.568925957E-1,9.098501444E-2,7.833349121E-1
3.626671708E0,7.311238584E-1,3.246276189E-1,3.110011214E-1,8.582813553E-1
3.636751708E0,7.305647915E-1,3.979419091E-1,4.276975125E-1,9.354185372E-1
3.646830708E0,7.509275007E-1,4.407808037E-1,3.810326385E-1,9.504555223E-1
3.656910708E0,7.907580759E-1,3.859583330E-1,2.464402592E-1,9.137805923E-1
3.666989708E0,7.888725682E-1,2.002510563E-1,9.285319984E-2,8.191716127E-1
3.677069708E0,7.021000341E-1,-9.068885297E-2,2.861919701E-2,7.085111039E-1
3.687148708E0,6.215247446E-1,-3.360527860E-1,8.780354440E-2,7.119929392E-1
3.697228708E0,5.725121404E-1,-4.897541584E-1,2.688959062E-1,7.999589333E-1
3.707307708E0,5.053594999E-1,-6.196887919E-1,4.858217597E-1,9.356416008E-1
3.717387708E0,4.413666947E-1,-6.455653524E-1,6.482860619E-1,1.015792302E0
3.727467708E0,4.106693242E-1,-5.480266325E-1,7.138678479E-1,9.892369727E-1
3.737546708E0,4.164518550E-1,-4.042583638E-1,6.518166107E-1,8.727667880E-1
3.747626708E0,4.717211261E-1,-2.876546511E-1,6.029227781E-1,8.177908629E-1
3.757705708E0,5.663263710E-1,-2.277866180E-1,6.150124812E-1,8.665175439E-1
3.767785708E0,6.449216471E-1,-2.904544441E-1,6.641869801E-1,9.702742188E-1
3.777864708E0,6.883001666E-1,-4.795858504E-1,7.035948747E-1,1.094899747E0
3.787944708E0,7.211969673E-1,-6.962349844E-1,7.593410593E-1,1.257563940E0
3.798023708E0,7.301380178E-1,-9.627718315E-1,8.730851912E-1,1.490741049E0
3.808103708E0,6.569408912E-1,-1.272752906E0,9.567652792E-1,1.722460767E0
3.818182708E0,6.283346312E-1,-1.485390850E0,9.050969428E-1,1.849429875E0
3.828262708E0,6.631765082E-1,-1.555301184E0,7.682808673E-1,1.857153829E0
3.838341708E0,7.021715163E-1,-1.518216826E0,6.678268719E-1,1.801116293E0
3.848421708E0,7.166517804E-1,-1.435297900E0,5.944168335E-1,1.710848096E0
3.858501708E0,7.197391833E-1,-1.296619048E0,5.307886022E-1,1.575113325E0
3.868580708E0,7.113326414E-1,-1.136898332E0,4.609401029E-1,1.418096514E0
3.878660708E0,7.595787486E-1,-9.674775975E-1,3.969212776E-1,1.292485697E0
3.888739708E0,7.957396844E-1,-8.263624299E-1,3.476052761E-1,1.198710115E0
3.898819708E0,7.903261860E-1,-7.692336711E-1,2.801634908E-1,1.137904874E0
3.908898708E0,7.913651631E-1,-7.219714310E-1,1.597383302E-1,1.083059510E0
3.918978708E0,8.081837288E-1,-6.614755531E-1,-1.971330285E-2,1.044557065E0
3.929057708E0,7.860481437E-1,-6.207265265E-1,-2.083281076E-1,1.023021850E0
3.939137708E0,7.415035433E-1,-5.683402982E-1,-2.976560211E-1,9.805290950E-1
3.949216708E0,7.368947679E-1,-4.351364864E-1,-3.949115896E-1,9.425034877E-1
3.959296708E0,7.426517902E-1,-2.639114472E-1,-4.983780706E-1,9.325028873E-1
3.969375708E0,7.493091376E-1,-1.831334786E-1,-5.700871539E-1,9.591670437E-1
3.979455708E0,7.777063597E-1,-1.599302651E-1,-5.140842766E-1,9.458792286E-1
3.989534708E0,7.747404326E-1,-1.887186659E-1,-3.032950759E-1,8.531268229E-1
3.999614708E0,7.215223648E-1,-3.121159662E-1,-2.638497591E-2,7.865793452E-1
4.009694708E0,7.427566747E-1,-4.219114003E-1,2.039655000E-1,8.782360916E-1
4.019773708E0,7.918186878E-1,-4.643038599E-1,3.365721649E-1,9.776685179E-1
4.029853708E0,8.405301603E-1,-4.926710419E-1,4.579837507E-1,1.076552285E0
4.039932708E0,8.271118967E-1,-5.330901394E-1,5.822066778E-1,1.143356376E0
4.050012708E0,7.890484232E-1,-5.841296808E-1,7.256388777E-1,1.220801654E0
4.060091708E0,7.568763848E-1,-6.117101931E-1,8.084038764E-1,1.265135585E0
4.070171708E0,7.920112073E-1,-6.048249505E-1,8.352940518E-1,1.300311934E0
4.080250708E0,8.223258776E-1,-5.229816923E-1,7.759179157E-1,1.245703942E0
4.090330708E0,8.054546139E-1,-4.885369143E-1,6.577965581E-1,1.148965519E0
4.100409708E0,7.493224400E-1,-4.876418518E-1,5.406493467E-1,1.044787256E0
4.110489708E0,6.751343565E-1,-4.870175884E-1,4.817000574E-1,9.617834871E-1
4.120568708E0,6.302699865E-1,-4.750085038E-1,4.464390081E-1,9.067420375E-1
4.130648708E0,6.469355743E-1,-3.556588655E-1,3.075430781E-1,7.997509680E-1
4.140728708E0,7.017524902E-1,-1.800284609E-1,2.215357983E-1,7.575915220E-1
4.150807708E0,7.023440822E-1,-7.787497222E-2,1.781348401E-1,7.287549262E-1
4.160887708E0,6.462750582E-1,-7.151802555E-2,1.868623942E-1,6.765381240E-1
4.170966708E0,6.510691173E-1,-6.902652696E-2,2.055471718E-1,6.862253979E-1
4.181046708E0,7.612840160E-1,-3.862012848E-2,1.726834810E-1,7.815781803E-1
4.191125708E0,8.644443952E-1,-3.554273888E-2,1.679764724E-1,8.813305248E-1
4.201205708E0,9.291152582E-1,-1.125442833E-1,2.639362979E-1,9.724113060E-1
4.211284708E0,9.458252849E-1,-2.424143051E-1,3.686716247E-1,1.043680474E0
4.221364708E0,9.778868839E-1,-3.082710564E-1,4.107815176E-1,1.104552062E0
4.231443708E0,1.049721244E0,-2.849045594E-1,3.577121884E-1,1.145007994E0
4.241523708E0,1.075588522E0,-2.916589706E-1,3.149479920E-1,1.158079385E0
4.251602708E0,9.438211517E-1,-3.811074829E-1,2.846746176E-1,1.056920488E0
4.261682708E0,7.199191314E-1,-4.914906353E-1,1.959787881E-1,8.934507741E-1
4.271761708E0,6.072801963E-1,-5.045436671E-1,-3.991894126E-3,7.895375128E-1
4.281841708E0,5.553132865E-1,-4.258068153E-1,-2.033755159E-1,7.287289555E-1
4.291920708E0,5.495110944E-1,-3.505556349E-1,-3.280966258E-1,7.297253538E-1
4.302000708E0,5.570079558E-1,-3.803624015E-1,-3.603282326E-1,7.647024614E-1
4.312080708E0,5.197481820E-1,-5.043464698E-1,-3.269786382E-1,7.946185022E-1
4.322159708E0,5.255622147E-1,-6.386527741E-1,-2.116744691E-1,8.537558716E-1
4.332239375E0,4.897420254E-1,-7.394245657E-1,-7.171609998E-2,8.897972459E-1
4.342318375E0,4.482501832E-1,-7.446540231E-1,5.607713699E-2,8.709664093E-1
4.352398375E0,4.477802132E-1,-7.057932816E-1,1.954928845E-1,8.584105915E-1
4.362477375E0,4.761045644E-1,-6.954226600E-1,2.613477355E-1,8.823779638E-1
4.372557375E0,5.149848939E-1,-6.780095056E-1,2.743127668E-1,8.945131775E-1
4.382636375E0,5.922042471E-1,-5.939721528E-1,2.746887428E-1,8.825886324E-1
4.392716375E0,6.683892278E-1,-5.411185858E-1,2.691824198E-1,9.011174501E-1
4.402795375E0,7.004223217E-1,-5.031515913E-1,3.218728495E-1,9.205189209E-1
4.412875375E0,7.019044447E-1,-4.509590520E-1,3.714063674E-1,9.132231961E-1
4.422954375E0,7.453482337E-1,-3.634791510E-1,3.030202568E-1,8.828829813E-1
4.433034375E0,8.387639357E-1,-3.033852692E-1,1.106836993E-1,8.987872066E-1
4.443113375E0,9.336750631E-1,-2.641985455E-1,-1.644529402E-2,9.704743390E-1
4.453193375E0,9.918016492E-1,-2.773805085E-1,-5.172271550E-2,1.031157455E0
4.463273375E0,1.044015092E0,-3.237913209E-1,4.970133305E-5,1.093072886E0
4.473352375E0,1.070366739E0,-3.537501150E-1,9.255674601E-2,1.131101610E0
4.483432375E0,1.083200793E0,-3.732899018E-1,2.326566178E-1,1.169101540E0
4.493511375E0,1.130466029E0,-4.154813634E-1,3.943946958E-1,1.267330021E0
4.503591375E0,1.125696456E0,-5.289442442E-1,6.394988662E-1,1.398546861E0
4.513670375E0,1.048566711E0,-7.726380663E-1,8.636401838E-1,1.562797522E0
4.523750375E0,1.083597380E0,-1.053123300E0,1.048599894E0,1.839242699E0
4.533829375E0,1.113540825E0,-1.226001493E0,1.209828095E0,2.051033118E0
4.543909375E0,1.113157979E0,-1.386226750E0,1.380639297E0,2.250979822E0
4.553988375E0,1.102921989E0,-1.520860645E0,1.582088740E0,2.456106431E0
4.564068375E0,1.078067230E0,-1.578742817E0,1.676998406E0,2.543026050E0
4.574147375E0,1.066490620E0,-1.470091903E0,1.667840497E0,2.465819208E0
4.584227375E0,1.081557140E0,-1.236664622E0,1.533159825E0,2.247150258E0
4.594306375E0,1.097165698E0,-9.869043137E-1,1.293512276E0,1.962377818E0
4.604386375E0,1.070182698E0,-8.305811960E-1,9.383044499E-1,1.647899078E0
4.614465375E0,1.051194888E0,-7.099309176E-1,5.449452960E-1,1.380571612E0
4.624545375E0,1.046909464E0,-6.236771777E-1,2.137133932E-1,1.237200898E0
4.634625375E0,1.030615321E0,-6.123892741E-1,-7.794513881E-2,1.201359233E0
4.644704375E0,1.014880025E0,-6.202637194E-1,-2.851032186E-1,1.223107678E0
4.654784375E0,9.850522082E-1,-6.646766844E-1,-3.655176365E-1,1.243272331E0
4.664863375E0,9.294394863E-1,-7.259068264E-1,-3.392776716E-1,1.227154358E0
4.674943375E0,8.896113230E-1,-7.349477912E-1,-3.474403846E-1,1.205102229E0
4.685022375E0,8.928236371E-1,-6.570764735E-1,-3.618426615E-1,1.166110480E0
4.695102375E0,8.961512876E-1,-5.688640626E-1,-2.473302054E-1,1.089892510E0
4.705181375E0,8.293654136E-1,-5.439258340E-1,-4.093343318E-2,9.926620010E-1
4.715261375E0,7.596524236E-1,-5.565163511E-1,2.516764408E-1,9.747426761E-1
4.725340375E0,7.261100172E-1,-5.384133714E-1,5.106695026E-1,1.038223510E0
4.735420375E0,7.218010578E-1,-4.894331463E-1,7.100285661E-1,1.124580871E0
4.745499375E0,7.158345589E-1,-4.854282421E-1,8.954262328E-1,1.244928846E0
4.755579375E0,6.901530030E-1,-5.365619968E-1,1.090996301E0,1.398028209E0
4.765658375E0,6.574970345E-1,-5.966273734E-1,1.225492201E0,1.513306878E0
4.775738375E0,6.976269141E-1,-6.472493505E-1,1.282846954E0,1.597282486E0
4.785817375E0,7.202768348E-1,-7.187134355E-1,1.251291870E0,1.612786119E0
4.795897375E0,7.227265258E-1,-8.186318260E-1,1.178545491E0,1.606692619E0
4.805977375E0,7.141818434E-1,-9.406218477E-1,1.155417414E0,1.652215049E0
4.816056375E0,6.550352105E-1,-1.073709300E0,1.076987541E0,1.655845691E0
4.826136375E0,6.474820697E-1,-1.121683365E0,8.976271248E-1,1.575798546E0
4.836215375E0,6.840499717E-1,-1.117706235E0,6.578567845E-1,1.466276625E0
4.846295375E0,7.061746663E-1,-1.101304065E0,4.246750867E-1,1.375464369E0
4.856374375E0,6.884079015E-1,-1.147309665E0,2.574879885E-1,1.362543567E0
4.866454375E0,5.838900912E-1,-1.276043573E0,7.618395746E-2,1.405353633E0
4.876533375E0,5.745753305E-1,-1.318871504E0,-1.423949039E-1,1.445626218E0
4.886613375E0,6.630869727E-1,-1.246864944E0,-3.667771268E-1,1.459068875E0
4.896692375E0,7.394456157E-1,-1.149697083E0,-4.869526112E-1,1.451105112E0
4.906772375E0,7.636775006E-1,-1.126191861E0,-3.936380661E-1,1.416496509E0
4.916851375E0,7.411771224E-1,-1.176509929E0,-1.859250855E-1,1.402885340E0
4.926931375E0,7.417850867E-1,-1.204572471E0,-3.029325485E-2,1.414976196E0
4.937010375E0,8.096295990E-1,-1.226756077E0,1.216904980E-1,1.474869193E0
4.947090375E0,8.130810642E-1,-1.314926972E0,3.668268281E-1,1.588929099E0
4.957169375E0,6.971281466E-1,-1.519647202E0,6.485076714E-1,1.793286778E0
4.967249375E0,5.787208602E-1,-1.697901763E0,9.445334888E-1,2.027296659E0
4.977328375E0,5.328650947E-1,-1.750465893E0,1.170890316E0,2.172339795E0
4.987408375E0,5.218264286E-1,-1.729582270E0,1.310956859E0,2.232121309E0
4.997488375E0,4.851659945E-1,-1.782724982E0,1.472241193E0,2.362411593E0
5.007567375E0,4.151336002E-1,-1.850240004E0,1.663923447E0,2.522769354E0
5.017647375E0,3.196690339E-1,-1.860719968E0,1.686059836E0,2.531257566E0
5.027726375E0,2.965536748E-1,-1.825752157E0,1.480034362E0,2.368927338E0
5.037806375E0,3.586423342E-1,-1.735281405E0,1.170457622E0,2.123628245E0
5.047885375E0,3.951883091E-1,-1.668972079E0,8.271658373E-1,1.904165151E0
5.057965375E0,3.629967557E-1,-1.669697280E0,4.157370329E-1,1.758548530E0
5.068044375E0,3.694497429E-1,-1.673886226E0,-1.782816052E-3,1.714173675E0
5.078124375E0,4.475990957E-1,-1.582464570E0,-3.857378930E-1,1.689181100E0
5.088203375E0,5.501909794E-1,-1.481062156E0,-6.944322878E-1,1.725830649E0
5.098283375E0,6.154782119E-1,-1.434334571E0,-8.428854918E-1,1.773861619E0
5.108362375E0,6.287208398E-1,-1.444176897E0,-8.174191135E-1,1.774573417E0
5.118442375E0,6.451937619E-1,-1.445863526E0,-7.296798885E-1,1.743338483E0
5.128521375E0,6.905858432E-1,-1.356355372E0,-6.386211991E-1,1.650589512E0
5.138601375E0,7.304034814E-1,-1.239732948E0,-5.107870317E-1,1.526869484E0
5.148680375E0,7.024318635E-1,-1.163345800E0,-3.113314891E-1,1.394170459E0
5.158760375E0,6.420483984E-1,-1.136647560E0,-1.085962433E-1,1.309956856E0
5.168839375E0,6.533596909E-1,-1.085086227E0,3.289409637E-2,1.267033160E0
5.178919375E0,6.802633148E-1,-1.003656879E0,1.612182605E-1,1.223142116E0
5.188999375E0,6.554056317E-1,-9.615502019E-1,2.886261660E-1,1.198933024E0
5.199078375E0,6.342166378E-1,-9.113284667E-1,3.863530201E-1,1.175593031E0
5.209158375E0,6.046039988E-1,-8.398819233E-1,4.759136528E-1,1.139052872E0
5.219237375E0,5.576270297E-1,-7.891549887E-1,5.601667678E-1,1.116915533E0
5.229317375E0,4.787603697E-1,-7.385148852E-1,6.056545973E-1,1.068378780E0
5.239396375E0,3.988306859E-1,-6.052793522E-1,6.809819376E-1,9.945679512E-1
5.249476375E0,2.801148127E-1,-4.132781325E-1,7.692702162E-1,9.170822148E-1
5.259555375E0,1.998730338E-1,-2.017052588E-1,8.534373772E-1,8.994384903E-1
5.269635375E0,9.184572458E-2,4.845251396E-2,9.342716253E-1,9.400248683E-1
5.279714375E0,-7.301125824E-3,2.875077398E-1,9.276870757E-1,9.712452406E-1
5.289794375E0,-1.059230424E-1,4.078677039E-1,8.053229785E-1,9.089119069E-1
5.299873375E0,-1.197762658E-1,3.819423191E-1,6.108112568E-1,7.302853417E-1
5.309953375E0,-1.364168568E-1,3.175573120E-1,3.639763105E-1,5.019272455E-1
5.320032375E0,-1.095626418E-1,2.553195485E-1,1.290281689E-1,3.063336624E-1
5.330112375E0,-4.269015603E-2,2.399023412E-1,-5.053982377E-2,2.488571006E-1
5.340195458E0,7.889545754E-2,2.361072059E-1,-1.755304903E-1,3.046014756E-1
5.350275458E0,1.464522137E-1,3.065107521E-1,-2.231794506E-1,4.064556055E-1
5.360354458E0,9.642467916E-2,3.599855858E-1,-1.739529115E-1,4.112747940E-1
5.370434458E0,1.056295853E-1,4.074997678E-1,-2.435891569E-2,4.216717051E-1
5.380514458E0,1.582778420E-1,4.770792952E-1,9.277426243E-2,5.111395044E-1
5.390593458E0,1.823632541E-1,5.672031610E-1,2.451532871E-1,6.442638562E-1
5.400673458E0,2.113850319E-1,6.328030734E-1,3.888304853E-1,7.722127348E-1
5.410752458E0,2.164845349E-1,6.979806706E-1,5.308499980E-1,9.032409926E-1
5.420832458E0,2.154669732E-1,7.538861918E-1,6.205784458E-1,9.999440055E-1
5.430911458E0,2.488117437E-1,8.073804675E-1,5.999237412E-1,1.036184828E0
5.440991458E0,2.630745645E-1,8.463878278E-1,4.907082778E-1,1.013101770E0
5.451070458E0,2.775111938E-1,8.296452029E-1,3.412914526E-1,9.390439186E-1
5.461150458E0,3.027068460E-1,7.680982880E-1,2.044677758E-1,8.505371750E-1
5.471229458E0,3.387661864E-1,7.227257949E-1,3.948858619E-2,7.991585901E-1
5.481309458E0,3.889371970E-1,6.915662751E-1,-1.317634964E-1,8.042994934E-1
5.491388458E0,4.597228588E-1,6.654037857E-1,-2.086730933E-1,8.352555087E-1
5.501468458E0,4.867007424E-1,6.180407542E-1,-1.984796423E-1,8.113237054E-1
5.511547458E0,4.754846133E-1,5.597128777E-1,-1.306560338E-1,7.459457904E-1
5.521627458E0,4.965487692E-1,5.330432886E-1,-2.423261583E-2,7.288916568E-1
5.531706458E0,5.299135664E-1,4.955415863E-1,8.616983235E-2,7.306128192E-1
5.541786458E0,5.447304109E-1,4.329265313E-1,1.897748923E-1,7.212288900E-1
5.551865458E0,5.222117601E-1,3.742339347E-1,2.522535610E-1,6.902086781E-1
5.561945458E0,4.953511132E-1,3.319461402E-1,2.519489211E-1,6.473323908E-1
5.572024458E0,4.548389719E-1,3.190416276E-1,2.040350819E-1,5.918583996E-1
5.582104458E0,4.446519528E-1,3.486253229E-1,7.600971043E-2,5.701161732E-1
5.592184458E0,4.189861844E-1,3.803413515E-1,-1.130073828E-1,5.770438761E-1
5.602263458E0,3.920239422E-1,4.121354404E-1,-2.626580966E-1,6.265202855E-1
5.612343458E0,3.671110028E-1,4.571994929E-1,-3.513784844E-1,6.835705552E-1
5.622422458E0,3.175701758E-1,5.191418257E-1,-4.046553898E-1,7.308249012E-1
5.632502458E0,3.280119874E-1,5.623251213E-1,-3.727307618E-1,7.501530688E-1
5.642581458E0,3.442333330E-1,5.525873145E-1,-2.676171201E-1,7.038950566E-1
5.652661458E0,3.136670132E-1,4.664319541E-1,-1.010971892E-1,5.711098008E-1
5.662740458E0,2.495082933E-1,3.543845379E-1,1.431293142E-1,4.564304873E-1
5.672820458E0,1.800714380E-1,2.180148974E-1,3.212279016E-1,4.279527813E-1
5.682899458E0,1.641009378E-1,1.470340848E-1,4.271765256E-1,4.806536424E-1
5.692979458E0,1.544834375E-1,1.706045035E-1,4.755528796E-1,5.283195722E-1
5.703058458E0,1.252866818E-1,2.097578980E-1,4.405327356E-1,5.037501559E-1
5.713138458E0,8.630446449E-2,1.983346313E-1,3.602463716E-1,4.201934493E-1
5.723217458E0,2.854815334E-2,1.616810676E-1,2.000566363E-1,2.588018981E-1
5.733297458E0,-1.971637264E-2,1.262141964E-1,6.724941194E-2,1.443649616E-1
5.743376458E0,-6.187392041E-2,1.213085286E-1,6.203895807E-4,1.361782877E-1
5.753456458E0,-9.749881268E-2,1.451363710E-1,3.643633962E-2,1.786006481E-1
5.763535458E0,-1.381021705E-1,1.642585203E-1,1.156310284E-1,2.437695751E-1
5.773615458E0,-1.575103949E-1,1.449564229E-1,2.167124301E-1,3.046082179E-1
5.783694458E0,-1.876900676E-1,1.325587177E-1,3.699802315E-1,4.355281240E-1
5.793774458E0,-2.464031294E-1,6.378669083E-2,6.079665864E-1,6.590952998E-1
5.803853458E0,-3.339762935E-1,-1.176673213E-1,8.074630594E-1,8.816928918E-1
5.813933458E0,-4.216180162E-1,-2.506214570E-1,9.107441837E-1,1.034421497E0
5.824012458E0,-4.609041426E-1,-3.717187549E-1,9.494667846E-1,1.118970347E0
5.834092458E0,-5.038146655E-1,-4.887474141E-1,9.058945030E-1,1.146014006E0
5.844172458E0,-5.542954324E-1,-5.934540895E-1,8.502278405E-1,1.175720444E0
5.854251458E0,-5.928130884E-1,-6.291351150E-1,7.813067096E-1,1.165194630E0
5.864331458E0,-6.566721386E-1,-6.170958441E-1,6.940147966E-1,1.137401475E0
5.874410458E0,-7.464102343E-1,-6.109203073E-1,6.108755761E-1,1.141718367E0
5.884490458E0,-7.954960017E-1,-6.297147202E-1,5.237965018E-1,1.141804402E0
5.894569458E0,-8.097206694E-1,-6.414416036E-1,3.925551617E-1,1.105076671E0
5.904649458E0,-7.952055413E-1,-6.061928335E-1,2.501216662E-1,1.030719386E0
5.914728458E0,-7.709681015E-1,-5.488728708E-1,1.244673407E-1,9.545393448E-1
5.924808458E0,-7.199507064E-1,-5.061238772E-1,-3.776716590E-2,8.808613724E-1
5.934887458E0,-6.778377436E-1,-4.906337258E-1,-2.242682022E-1,8.663034607E-1
5.944967458E0,-6.374150647E-1,-4.887230019E-1,-3.488665205E-1,8.757031383E-1
5.955046458E0,-6.117283925E-1,-5.001123548E-1,-4.518891978E-1,9.102350470E-1
5.965126458E0,-6.114040183E-1,-4.814924812E-1,-5.945635986E-1,9.793649758E-1
5.975205458E0,-6.035107157E-1,-4.556293693E-1,-7.593849134E-1,1.071675675E0
5.985285458E0,-5.714828843E-1,-4.252872902E-1,-8.810578698E-1,1.133015859E0
5.995364458E0,-5.621745555E-1,-3.756061301E-1,-9.206540447E-1,1.142245186E0
6.005444458E0,-5.342364129E-1,-2.913432209E-1,-9.168024838E-1,1.100370943E0
6.015523458E0,-4.927327301E-1,-1.977300292E-1,-8.396338552E-1,9.934121595E-1
6.025603458E0,-4.782190637E-1,-7.360036522E-2,-6.919191545E-1,8.443119110E-1
6.035682458E0,-4.936204836E-1,1.644938707E-2,-5.745187587E-1,7.576302318E-1
6.045762458E0,-4.819064641E-1,8.430807889E-2,-5.233842731E-1,7.164305895E-1
6.055841458E0,-4.659011731E-1,1.586003159E-1,-5.361037213E-1,7.277535044E-1
6.065921458E0,-4.621053068E-1,2.335149890E-1,-5.561789668E-1,7.598720996E-1
6.076000458E0,-4.360584462E-1,3.060435596E-1,-6.020573902E-1,8.039171164E-1
6.086080458E0,-4.294171786E-1,3.876889627E-1,-6.708668393E-1,8.858691558E-1
6.096160458E0,-3.930284938E-1,4.716672586E-1,-7.005022824E-1,9.314745554E-1
6.106239458E0,-3.737733203E-1,5.152617596E-1,-6.540987790E-1,9.127137495E-1
6.116319458E0,-3.930347796E-1,5.060734449E-1,-6.211625826E-1,8.924290581E-1
6.126398458E0,-3.793594578E-1,5.021549334E-1,-5.999675953E-1,8.695023236E-1
6.136478458E0,-3.030005224E-1,6.227118024E-1,-5.398009157E-1,8.780457471E-1
6.146557458E0,-2.750022997E-1,7.038577071E-1,-4.284588200E-1,8.686880321E-1
6.156637458E0,-3.742725264E-1,6.685523652E-1,-3.526555163E-1,8.434501183E-1
6.166716458E0,-4.626414965E-1,6.405516574E-1,-2.631802529E-1,8.328309706E-1
6.176796458E0,-5.010910325E-1,6.031660223E-1,-1.905519873E-1,8.069767860E-1
6.186875458E0,-4.304629532E-1,6.111571196E-1,-1.047318184E-1,7.548378188E-1
6.196955458E0,-4.179642373E-1,6.266917098E-1,-8.860461295E-2,7.584770136E-1
6.207034458E0,-3.806182171E-1,6.810275459E-1,-1.367494172E-1,7.920663789E-1
6.217114458E0,-2.667612340E-1,8.291030198E-1,-1.055790800E-1,8.773370593E-1
6.227193458E0,-2.628063235E-1,9.497205538E-1,-3.955465972E-2,9.862052854E-1
6.237273458E0,-4.361572641E-1,8.891727819E-1,-1.027227151E-1,9.956974195E-1
6.247352458E0,-4.834670860E-1,8.204941642E-1,-1.327516758E-1,9.615477649E-1
6.257432458E0,-4.526059203E-1,7.866868789E-1,-1.266933757E-1,9.163948800E-1
6.267511458E0,-4.240394944E-1,7.314884323E-1,-1.619725513E-1,8.608832248E-1
6.277591458E0,-3.415306038E-1,7.362917738E-1,-1.907548857E-1,8.337602508E-1
6.287670458E0,-3.491565424E-1,7.462843730E-1,-2.805002904E-1,8.703626080E-1
6.297750458E0,-3.464332017E-1,7.893749902E-1,-3.883831733E-1,9.455000411E-1
6.307829458E0,-2.117632006E-1,8.669872762E-1,-4.304533052E-1,9.908585360E-1
6.317909458E0,-2.630331954E-1,9.281145072E-1,-4.367261982E-1,1.058920570E0
6.327988458E0,-3.039012860E-1,9.801114571E-1,-4.469833839E-1,1.119271462E0
6.338065625E0,-2.144105275E-1,1.007448944E0,-3.730155212E-1,1.095475161E0
6.348144625E0,-1.639411627E-1,9.889286198E-1,-2.917485791E-1,1.044018081E0
6.358224625E0,-1.979099773E-1,9.391672066E-1,-2.199833626E-1,9.846806999E-1
6.368304625E0,-2.883743703E-1,9.138715670E-1,-1.858771384E-1,9.761512838E-1
6.378383625E0,-2.876575016E-1,8.955854233E-1,-1.107550353E-1,9.471466446E-1
6.388463625E0,-2.720364457E-1,8.281139633E-1,9.736783504E-3,8.717060106E-1
6.398542625E0,-2.761870187E-1,7.456644219E-1,9.916351497E-2,8.013289600E-1
6.408622625E0,-2.761368057E-1,6.328736785E-1,1.386918622E-1,7.042840770E-1
6.418701625E0,-3.028750996E-1,5.102333003E-1,1.942784178E-1,6.243520244E-1
6.428781625E0,-3.184328594E-1,4.319475612E-1,2.870462483E-1,6.085833799E-1
6.438860625E0,-3.242832179E-1,4.036017215E-1,3.906168097E-1,6.485641426E-1
6.448940625E0,-2.514275687E-1,4.023932482E-1,4.626907593E-1,6.627359107E-1
6.459019625E0,-1.732841362E-1,4.414808616E-1,5.215225196E-1,7.049244509E-1
6.469099625E0,-1.526005610E-1,4.963704291E-1,6.271244037E-1,8.142208250E-1
6.479178625E0,-1.669143257E-1,4.670260312E-1,7.093520433E-1,8.655368433E-1
6.489258625E0,-1.927134836E-1,4.062126495E-1,7.844759005E-1,9.041845176E-1
6.499337625E0,-2.532534349E-1,3.380984344E-1,8.262396383E-1,9.279654054E-1
6.509417625E0,-3.004292824E-1,2.633840284E-1,8.555897373E-1,9.442789306E-1
6.519496625E0,-2.966258879E-1,2.455779411E-1,9.048367417E-1,9.833742785E-1
6.529576625E0,-2.666583961E-1,2.195468679E-1,9.260767525E-1,9.883955074E-1
6.539655625E0,-2.458336106E-1,1.545245142E-1,9.805336261E-1,1.022623186E0
6.549735625E0,-2.488554516E-1,5.880486310E-2,1.053317428E0,1.083911736E0
6.559814625E0,-2.464668640E-1,-1.081150174E-2,1.074555100E0,1.102511436E0
6.569894625E0,-2.203716177E-1,-3.521383300E-2,1.027822983E0,1.051771718E0
6.579973625E0,-1.542056948E-1,-1.398259297E-2,9.606905150E-1,9.730884723E-1
6.590053625E0,-1.387986470E-1,-8.293398321E-3,9.126761037E-1,9.232071897E-1
6.600132625E0,-1.797820008E-1,-9.043186784E-2,9.787683517E-1,9.992432020E-1
6.610212625E0,-2.159235676E-1,-2.196054862E-1,1.128658217E0,1.169922616E0
6.620291625E0,-2.297067706E-1,-3.529787211E-1,1.312736751E0,1.378635904E0
6.630371625E0,-2.006926672E-1,-4.308099854E-1,1.567447312E0,1.637915098E0
6.640450625E0,-2.370816444E-1,-5.240350682E-1,1.785172480E0,1.875542920E0
6.650530625E0,-3.463774339E-1,-6.757899025E-1,1.774763267E0,1.930402542E0
6.660609625E0,-3.351486602E-1,-8.103058295E-1,1.512695155E0,1.748475562E0
6.670689625E0,-2.266676071E-1,-8.520708829E-1,1.131302912E0,1.434311428E0
6.680768625E0,-1.216136071E-1,-8.612641677E-1,6.919156462E-1,1.111446399E0
6.690848625E0,-4.485442981E-2,-8.126268817E-1,2.395522392E-1,8.483864945E-1
6.700928625E0,-4.801872365E-2,-7.304811032E-1,-1.644201958E-1,7.502949025E-1
6.711007625E0,-8.082686596E-2,-6.490172562E-1,-5.725231040E-1,8.692175134E-1
6.721087625E0,-4.986034077E-2,-5.677845204E-1,-8.990760648E-1,1.064520120E0
6.731166625E0,1.951709222E-2,-4.858773082E-1,-1.140762538E0,1.240079370E0
6.741246625E0,1.143323618E-1,-3.738297459E-1,-1.300759315E0,1.358232441E0
6.751325625E0,2.449091658E-1,-2.686245954E-1,-1.239386939E0,1.291595780E0
6.761405625E0,2.337532265E-1,-2.109067297E-1,-1.064538234E0,1.110118855E0
6.771484625E0,1.593195234E-1,-2.018279041E-1,-9.009003961E-1,9.368771196E-1
6.781564625E0,9.911063422E-2,-2.623480479E-1,-6.765819079E-1,7.324018666E-1
6.791643625E0,8.196224906E-2,-3.910822481E-1,-3.304185551E-1,5.184974027E-1
6.801723625E0,5.768077243E-2,-5.252020262E-1,4.855001628E-2,5.305858497E-1
6.811802625E0,2.920888871E-2,-6.074227953E-1,4.104359472E-1,7.336710967E-1
6.821882625E0,7.095450014E-3,-6.623914464E-1,7.023195970E-1,9.654354406E-1
6.831961625E0,-5.879941788E-2,-6.933295029E-1,8.627338654E-1,1.108364964E0
6.842041625E0,-1.086536556E-1,-6.594140442E-1,9.118873143E-1,1.130562237E0
6.852120625E0,-8.443975087E-2,-6.014045486E-1,8.975955498E-1,1.083741332E0
6.862200625E0,-7.442029104E-2,-6.040537758E-1,7.370602441E-1,9.558646072E-1
6.872279625E0,-8.707607768E-2,-6.258811395E-1,4.275302821E-1,7.629492684E-1
6.882359625E0,-2.953143574E-2,-5.815523744E-1,3.951255977E-2,5.836407390E-1
6.892438625E0,4.643040061E-2,-4.690469751E-1,-3.452839315E-1,5.842789062E-1
6.902518625E0,1.142299625E-1,-3.239994818E-1,-6.805621076E-1,7.623574823E-1
6.912597625E0,1.459908319E-1,-1.493171301E-1,-8.897222739E-1,9.139007895E-1
6.922677625E0,1.413638205E-1,1.031010300E-3,-9.881987411E-1,9.982592572E-1
6.932756625E0,9.154137701E-2,5.639537171E-2,-9.569634998E-1,9.629846321E-1
6.942836625E0,2.473905779E-2,8.130728781E-2,-8.286638939E-1,8.330106513E-1
6.952915625E0,9.582490101E-3,1.472713356E-1,-5.907570612E-1,6.089126175E-1
6.962995625E0,-1.444751970E-2,2.193504015E-1,-3.843637973E-1,4.427853409E-1
6.973074625E0,-4.871699084E-2,2.561444445E-1,-2.802149463E-1,3.827580669E-1
6.983154625E0,-5.115593757E-2,2.494537680E-1,-2.065242416E-1,3.278663976E-1
6.993233625E0,-6.310121443E-2,2.299373701E-1,-1.524415898E-1,2.830042327E-1
7.003313625E0,-9.213589266E-2,2.542614949E-1,-3.362149000E-2,2.725221736E-1
7.013392625E0,-1.291801600E-1,2.729815020E-1,7.925023735E-2,3.122291054E-1
7.023472625E0,-1.204935364E-1,2.736676727E-1,1.078811288E-1,3.178852393E-1
7.033551625E0,-5.263477150E-2,2.767685974E-1,9.798237741E-2,2.982814475E-1
7.043631625E0,-2.735546753E-2,2.646309471E-1,6.281488359E-2,2.733561219E-1
7.053710625E0,-3.265951339E-2,2.498795915E-1,2.844962776E-2,2.536056690E-1
7.063790625E0,-2.318888783E-2,2.610160522E-1,-1.448998511E-2,2.624444012E-1
7.073870625E0,-3.064584196E-2,2.595554177E-1,-1.341093993E-1,2.937575761E-1
7.083949625E0,3.074319810E-3,3.130736670E-1,-2.360088265E-1,3.920774650E-1
7.094028625E0,2.795129880E-2,3.857393548E-1,-2.226321512E-1,4.462523946E-1
7.104108625E0,3.194889396E-2,4.201956810E-1,-1.643845278E-1,4.523355117E-1
7.114188625E0,2.808520004E-2,3.974774940E-1,-4.112522185E-2,4.005850978E-1
7.124267625E0,2.260847859E-2,3.502710217E-1,1.331908017E-1,3.754207262E-1
7.134347625E0,-8.753501102E-3,2.668736467E-1,3.234504282E-1,4.194262112E-1
7.144426625E0,-6.499969572E-2,1.537618911E-1,5.729768479E-1,5.967999228E-1
7.154506625E0,-1.189768052E-1,2.302969739E-2,8.446484274E-1,8.532976110E-1
7.164585625E0,-1.254628292E-1,-8.976806268E-2,9.679504180E-1,9.801669441E-1
7.174665625E0,-8.977595642E-2,-1.427146004E-1,8.988655651E-1,9.145416795E-1
7.184744625E0,-3.154331647E-2,-1.500573877E-1,7.165996671E-1,7.328214539E-1
7.194824625E0,3.731473759E-3,-1.219353501E-1,5.189935988E-1,5.331383583E-1
7.204903625E0,-2.538780637E-2,-1.151135498E-1,3.552002245E-1,3.742497422E-1
7.214983625E0,-8.227259003E-2,-1.673398568E-1,2.637924564E-1,3.230446823E-1
7.225062625E0,-1.043393972E-1,-2.102837089E-1,1.695429415E-1,2.895699519E-1
7.235142625E0,-9.339019351E-2,-2.351203421E-1,1.717947042E-1,3.058050423E-1
7.245221625E0,-9.860123210E-2,-3.278206372E-1,2.705214322E-1,4.363145865E-1
7.255301625E0,-1.768376353E-1,-5.022483426E-1,4.306018245E-1,6.847940407E-1
7.265380625E0,-2.474086312E-1,-6.290738654E-1,6.035618788E-1,9.062184618E-1
7.275460625E0,-2.702029782E-1,-7.404815961E-1,7.372198731E-1,1.079266318E0
7.285539625E0,-3.077394714E-1,-7.999391547E-1,7.943313825E-1,1.168575448E0
7.295619625E0,-3.198952480E-1,-8.049225904E-1,7.917989534E-1,1.173532671E0
7.305698625E0,-3.405073410E-1,-7.399585627E-1,8.258139610E-1,1.159936473E0
7.315778625E0,-4.258757394E-1,-6.843388242E-1,8.783804297E-1,1.192158526E0
7.325857625E0,-5.208307940E-1,-6.820766826E-1,9.063137484E-1,1.248157813E0
7.335936583E0,-5.769627486E-1,-7.090849717E-1,8.728472096E-1,1.263942151E0
7.346015583E0,-5.992083344E-1,-7.839736247E-1,7.719558424E-1,1.252829236E0
7.356095583E0,-6.212671016E-1,-9.224716517E-1,6.480767316E-1,1.287218012E0
7.366174583E0,-6.380870560E-1,-1.048745782E0,4.702705050E-1,1.314601519E0
7.376254583E0,-6.441192629E-1,-1.140000792E0,2.498468471E-1,1.333009706E0
7.386333583E0,-6.686253823E-1,-1.160038469E0,-5.226826072E-3,1.338946030E0
7.396413583E0,-6.258339963E-1,-1.068273143E0,-2.513507509E-1,1.263349872E0
7.406492583E0,-5.833719548E-1,-8.973698473E-1,-4.054868639E-1,1.144558901E0
7.416572583E0,-6.084172605E-1,-7.419925167E-1,-4.897639525E-1,1.077308306E0
7.426651583E0,-6.492406198E-1,-6.376397440E-1,-5.037972701E-1,1.040148795E0
7.436731583E0,-6.576674078E-1,-5.672553474E-1,-4.424646556E-1,9.747204829E-1
7.446810583E0,-6.637164254E-1,-5.205893040E-1,-2.918468124E-1,8.925846059E-1
7.456890583E0,-7.076233140E-1,-5.162644109E-1,-7.870644629E-2,8.794625638E-1
7.466969583E0,-8.032287251E-1,-5.838070607E-1,7.939407885E-2,9.961478248E-1
7.477049583E0,-8.690519281E-1,-6.409576003E-1,1.733915788E-1,1.093683016E0
7.487128583E0,-8.825147767E-1,-6.542860360E-1,2.262854916E-1,1.121662905E0
7.497208583E0,-8.938663419E-1,-6.439373414E-1,2.595935708E-1,1.131830888E0
7.507287583E0,-9.422375064E-1,-6.290066224E-1,2.740297616E-1,1.165569886E0
7.517367583E0,-9.641065315E-1,-5.788132462E-1,2.599420649E-1,1.154164657E0
7.527446583E0,-9.414179461E-1,-5.076847914E-1,2.181327188E-1,1.091601337E0
7.537526583E0,-9.155991268E-1,-4.352287263E-1,1.520702916E-1,1.025120080E0
7.547605583E0,-9.100478534E-1,-4.049667540E-1,1.187563652E-1,1.003139194E0
7.557685583E0,-8.942370553E-1,-4.015499336E-1,5.976439118E-2,9.820763935E-1
7.567764583E0,-8.660545722E-1,-3.945107630E-1,-4.620996058E-2,9.527983127E-1
7.577844583E0,-8.078232479E-1,-3.516177817E-1,-2.155540967E-1,9.070154535E-1
7.587924583E0,-7.501097676E-1,-2.626993194E-1,-3.620484835E-1,8.733582886E-1
7.598003583E0,-7.082132249E-1,-2.001234408E-1,-4.539228594E-1,8.646741154E-1
7.608082583E0,-6.941642661E-1,-1.698771098E-1,-5.219692469E-1,8.849712738E-1
7.618162583E0,-6.304823135E-1,-1.123239894E-1,-6.457086092E-1,9.094307199E-1
7.628242583E0,-5.745079413E-1,-5.490886331E-2,-7.291688418E-1,9.299255657E-1
7.638321583E0,-5.545889626E-1,3.741194755E-3,-7.649590641E-1,9.448519904E-1
7.648401583E0,-5.723142122E-1,3.866822183E-2,-7.455492318E-1,9.406819047E-1
7.658480583E0,-6.430960733E-1,-1.097770885E-2,-6.534281033E-1,9.168758672E-1
7.668560583E0,-6.937163693E-1,-5.510065198E-2,-5.195707190E-1,8.684654368E-1
7.678639583E0,-6.989625643E-1,-5.569619089E-3,-4.487357944E-1,8.306283767E-1
7.688719583E0,-6.798711859E-1,5.166205063E-2,-3.761402732E-1,7.787010351E-1
7.698798583E0,-6.706257147E-1,9.608612537E-2,-2.800161409E-1,7.330623657E-1
7.708878583E0,-7.241099770E-1,1.079029097E-1,-8.403559864E-2,7.369126669E-1
7.718957583E0,-8.072383802E-1,9.216527492E-2,1.581683528E-1,8.277351437E-1
7.729037583E0,-8.605310731E-1,1.115160504E-1,2.910814118E-1,9.152474777E-1
7.739116583E0,-8.314515540E-1,1.657666634E-1,3.392472661E-1,9.131697437E-1
7.749196583E0,-7.727300137E-1,2.302095580E-1,3.213892847E-1,8.679857067E-1
7.759275583E0,-7.763308022E-1,2.489133391E-1,2.563115287E-1,8.546010558E-1
7.769355583E0,-7.567670419E-1,2.565898561E-1,1.696850288E-1,8.169012908E-1
7.779434583E0,-7.367925147E-1,2.276525706E-1,2.478049994E-2,7.715587961E-1
7.789514583E0,-6.855981682E-1,2.049589419E-1,-1.697815078E-1,7.354446115E-1
7.799593583E0,-5.652649552E-1,2.425394355E-1,-3.779090559E-1,7.219176559E-1
7.809673583E0,-4.776885020E-1,3.365018521E-1,-5.550744277E-1,8.059326409E-1
7.819752583E0,-4.435537726E-1,4.211999403E-1,-6.111118037E-1,8.646426866E-1
7.829832583E0,-4.228849617E-1,4.832118550E-1,-6.164491421E-1,8.901319747E-1
7.839911583E0,-3.918983732E-1,5.235427326E-1,-5.893414503E-1,8.803434971E-1
7.849991583E0,-3.676728471E-1,5.651880643E-1,-4.919256681E-1,8.346326938E-1
7.860070583E0,-3.888556284E-1,5.950205585E-1,-3.237234932E-1,7.810602185E-1
7.870150583E0,-4.571570275E-1,5.700050005E-1,-1.863139254E-1,7.540630791E-1
7.880229583E0,-4.790709300E-1,5.434462161E-1,-9.809873700E-2,7.310718897E-1
7.890309583E0,-4.850354554E-1,5.317355588E-1,-5.806285143E-4,7.197238600E-1
7.900388583E0,-4.933570665E-1,5.273818682E-1,7.897892654E-2,7.264781489E-1
7.910468583E0,-5.179272129E-1,5.348722976E-1,1.647476399E-1,7.625475444E-1
7.920547583E0,-5.519228516E-1,5.119905348E-1,2.646847415E-1,7.980044826E-1
7.930627583E0,-5.847917318E-1,4.890312964E-1,3.324750209E-1,8.316685746E-1
7.940706583E0,-5.558670178E-1,5.036681928E-1,3.930562681E-1,8.468547808E-1
7.950786583E0,-6.115873285E-1,5.355067205E-1,5.113319921E-1,9.603472884E-1
7.960865583E0,-6.618456088E-1,5.460521740E-1,5.297448742E-1,1.008385947E0
7.970945583E0,-6.319026022E-1,5.754657152E-1,5.417082775E-1,1.011884156E0
7.981024583E0,-5.930303856E-1,5.819705965E-1,5.201297128E-1,9.802600326E-1
7.991104583E0,-5.572336583E-1,5.540739691E-1,5.185825396E-1,9.415068579E-1
8.001183583E0,-5.679616179E-1,4.798948757E-1,5.133054274E-1,9.035275054E-1
8.011263583E0,-5.987002113E-1,4.040244752E-1,5.276123947E-1,8.944565717E-1
8.021342583E0,-6.180954988E-1,4.006858613E-1,5.415813929E-1,9.142765501E-1
8.031422583E0,-6.277830195E-1,4.621111540E-1,5.273270506E-1,9.411333893E-1
8.041501583E0,-6.135775745E-1,5.607373099E-1,5.571805948E-1,1.000676764E0
8.051581583E0,-5.771481784E-1,6.491350776E-1,6.333364856E-1,1.074984406E0
8.061660583E0,-5.737082615E-1,6.377059637E-1,7.370824635E-1,1.130973308E0
8.071740583E0,-5.811510361E-1,5.727808200E-1,8.483210635E-1,1.177056932E0
8.081819583E0,-5.658073575E-1,4.431908798E-1,9.168124241E-1,1.164946841E0
8.091899583E0,-5.149517475E-1,3.129159383E-1,9.255896795E-1,1.104449158E0
8.101978583E0,-4.574707306E-1,2.013420005E-1,9.089368093E-1,1.037296580E0
8.112058583E0,-4.461649930E-1,7.494975641E-2,8.928318232E-1,1.000914248E0
8.122137583E0,-4.803396296E-1,-6.820250809E-2,8.851228541E-1,1.009366241E0
8.132217583E0,-4.881310079E-1,-1.474976228E-1,8.611884463E-1,1.000836135E0
8.142296583E0,-4.996773950E-1,-1.657913679E-1,7.399359047E-1,9.081131096E-1
8.152376583E0,-4.909211896E-1,-1.417362151E-1,5.998331094E-1,7.879673395E-1
8.162455583E0,-4.852088984E-1,-8.662006795E-2,4.341931844E-1,6.568519107E-1
8.172535583E0,-4.908954618E-1,-6.526647493E-2,2.440212661E-1,5.520728625E-1
8.182614583E0,-4.881602074E-1,-6.860245764E-2,9.372034192E-2,5.017869944E-1
8.192694583E0,-4.650633767E-1,-1.184245357E-1,-8.366780877E-3,4.799774141E-1
8.202773583E0,-4.836057015E-1,-1.824078391E-1,-8.296789706E-2,5.234794803E-1
8.212853583E0,-5.183974021E-1,-2.630858204E-1,-1.299216235E-1,5.956757873E-1
8.222932583E0,-5.195378284E-1,-3.455838937E-1,-2.028317249E-1,6.561162179E-1
8.233012583E0,-5.153586772E-1,-3.962982568E-1,-2.628200644E-1,7.012283942E-1
8.243091583E0,-5.184029569E-1,-4.359613824E-1,-2.805926764E-1,7.331686046E-1
8.253171583E0,-5.120595320E-1,-4.637748331E-1,-3.477824467E-1,7.734627918E-1
8.263250583E0,-5.195408982E-1,-4.988360538E-1,-4.221911895E-1,8.348685848E-1
8.273330583E0,-5.097714434E-1,-5.222513750E-1,-4.483802837E-1,8.565385584E-1
8.283409583E0,-4.846376254E-1,-5.714271896E-1,-4.178525555E-1,8.579064163E-1
8.293489583E0,-4.806830073E-1,-6.372169903E-1,-3.240883595E-1,8.614725248E-1
8.303568583E0,-4.737863626E-1,-7.116038060E-1,-2.316538203E-1,8.857296352E-1
8.313648583E0,-4.475175270E-1,-7.938026480E-1,-1.814864641E-1,9.291565625E-1
8.323727583E0,-4.033958264E-1,-8.663464214E-1,-1.361337054E-1,9.653065318E-1
8.333811833E0,-3.691026375E-1,-9.117506357E-1,-9.977864206E-2,9.886767703E-1
8.343890833E0,-3.645698029E-1,-9.471442705E-1,-1.321494126E-1,1.023453408E0
8.353970833E0,-3.429437296E-1,-9.830898826E-1,-1.980142039E-1,1.059851756E0
8.364049833E0,-2.944198065E-1,-9.679325840E-1,-2.896044052E-1,1.052353183E0
8.374129833E0,-2.202331848E-1,-9.299382538E-1,-3.909729052E-1,1.032544248E0
8.384208833E0,-1.666094664E-1,-8.834537664E-1,-4.617891186E-1,1.010692071E0
8.394288833E0,-1.136788624E-1,-8.470244434E-1,-4.967180461E-1,9.884847540E-1
8.404367833E0,-6.368421838E-2,-7.870437053E-1,-4.992381960E-1,9.342013969E-1
8.414447833E0,-1.130259477E-2,-7.144394132E-1,-4.899083787E-1,8.663496081E-1
8.424526833E0,-1.765484540E-3,-6.656473222E-1,-4.288704640E-1,7.918455338E-1
8.434606833E0,2.028844960E-2,-6.134138525E-1,-3.408032101E-1,7.020220820E-1
8.444685833E0,6.918103963E-2,-5.650956783E-1,-1.928271389E-1,6.010835610E-1
8.454765833E0,9.199716747E-2,-5.349158594E-1,-2.090964317E-3,5.427732746E-1
8.464844833E0,8.453305051E-2,-4.990730122E-1,2.570330751E-1,5.677021312E-1
8.474924833E0,6.256608456E-2,-4.266659175E-1,5.867733532E-1,7.281904202E-1
8.485004833E0,5.029679887E-2,-3.650080517E-1,9.383418721E-1,1.008090331E0
8.495083833E0,1.839724079E-2,-2.904753479E-1,1.264456877E0,1.297522863E0
8.505162833E0,2.289016820E-2,-2.550061378E-1,1.497628049E0,1.519355740E0
8.515242833E0,5.171511412E-2,-2.970783162E-1,1.595721524E0,1.623963411E0
8.525321833E0,6.895321749E-2,-3.885945502E-1,1.544733803E0,1.594353409E0
8.535401833E0,1.105607615E-1,-5.000475968E-1,1.399117668E0,1.489899839E0
8.545481833E0,1.656099580E-1,-5.582051732E-1,1.174121488E0,1.310565123E0
8.555560833E0,2.023732301E-1,-5.748495649E-1,8.770507729E-1,1.068000470E0
8.565640833E0,2.451953139E-1,-5.182603580E-1,5.282175815E-1,7.795693388E-1
8.575719833E0,2.989124416E-1,-3.994642317E-1,2.308609378E-1,5.497427515E-1
8.585798833E0,3.269575151E-1,-2.905794284E-1,1.453442395E-2,4.376629643E-1
8.595878833E0,3.026879887E-1,-2.245284033E-1,-1.094440895E-1,3.924423921E-1
8.605958833E0,2.524501006E-1,-2.142412506E-1,-1.794533873E-1,3.766083973E-1
8.616037833E0,2.119017065E-1,-1.849559096E-1,-1.569088626E-1,3.220736141E-1
8.626117833E0,1.412287498E-1,-1.548108816E-1,-5.959599137E-2,2.178615410E-1
8.636196833E0,6.623791672E-2,-1.431339920E-1,-1.527175784E-2,1.584551288E-1
8.646276833E0,1.651604533E-2,-1.452351889E-1,-3.821096957E-2,1.510831494E-1
8.656355833E0,1.342491478E-2,-1.115160504E-1,-1.118391091E-1,1.585056597E-1
8.666435833E0,2.802862823E-2,-7.976508468E-2,-1.485087526E-1,1.708886255E-1
8.676514833E0,-4.727839877E-3,-9.688383177E-2,-1.387532580E-1,1.692964735E-1
8.686594833E0,-3.221223794E-2,-1.287404859E-1,-1.965763736E-1,2.371792816E-1
8.696673833E0,-1.706392944E-2,-1.393675080E-1,-3.030494928E-1,3.339962202E-1
8.706753833E0,2.548983572E-2,-1.310301094E-1,-4.482452130E-1,4.676990403E-1
8.716832833E0,8.573165663E-2,-1.171153441E-1,-6.188324672E-1,6.356253167E-1
8.726912833E0,1.558472275E-1,-7.442657679E-2,-6.678327191E-1,6.898030258E-1
8.736991833E0,1.726812883E-1,-4.300320134E-2,-5.871417278E-1,6.135173275E-1
8.747071833E0,1.620875222E-1,-3.681611627E-2,-4.229384637E-1,4.544279210E-1
8.757150833E0,1.892873807E-1,-2.640134811E-2,-2.757184374E-1,3.354808496E-1
8.767230833E0,2.141472566E-1,-3.272540420E-3,-1.812098908E-1,2.805472894E-1
8.777309833E0,2.499042229E-1,4.164971709E-2,-1.262852401E-1,2.830808743E-1
8.787389833E0,2.633288453E-1,1.027968286E-1,-6.852995217E-2,2.908704575E-1
8.797468833E0,2.559203500E-1,1.793080840E-1,2.112365127E-2,3.131977381E-1
8.807548833E0,2.631595684E-1,1.978757711E-1,9.799114823E-2,3.435259005E-1
8.817627833E0,2.751910917E-1,1.864336471E-1,1.184803766E-1,3.528813418E-1
8.827707833E0,2.730863864E-1,1.836252294E-1,1.551535285E-1,3.638227820E-1
8.837786833E0,2.688702516E-1,2.231706798E-1,1.969236982E-1,4.010926419E-1
8.847866833E0,2.603156289E-1,2.714381294E-1,2.067055053E-1,4.291503823E-1
8.857945833E0,2.587552263E-1,3.139821781E-1,2.145665020E-1,4.599759332E-1
8.868025833E0,2.984027106E-1,3.530966887E-1,2.322373724E-1,5.173544688E-1
8.878104833E0,3.232344467E-1,3.593203188E-1,2.636714190E-1,5.505580953E-1
8.888184833E0,3.201819078E-1,3.333193588E-1,3.117998511E-1,5.575279331E-1
8.898263833E0,3.418018415E-1,3.088638179E-1,4.209433937E-1,6.240342118E-1
8.908343833E0,3.908492365E-1,2.852466215E-1,4.914894658E-1,6.897033100E-1
8.918422833E0,4.529276633E-1,2.954001653E-1,4.891347921E-1,7.291485245E-1
8.928502833E0,4.527552436E-1,2.798090033E-1,5.453581095E-1,7.620340258E-1
8.938581833E0,4.371849854E-1,2.425878212E-1,5.545049089E-1,7.466292630E-1
8.948661833E0,4.624193754E-1,2.679325774E-1,4.730713212E-1,7.137338578E-1
8.958740833E0,4.939174125E-1,2.980331665E-1,3.281615299E-1,6.636777595E-1
8.968820833E0,5.334826703E-1,3.293884219E-1,2.052442861E-1,6.597163853E-1
8.978899833E0,5.525733178E-1,3.602326307E-1,1.373370624E-1,6.737702045E-1
8.988979833E0,5.249171572E-1,4.226072189E-1,1.520200056E-1,6.908291869E-1
8.999058833E0,4.869632093E-1,4.361234964E-1,2.287430763E-1,6.925750980E-1
9.009138833E0,4.438899510E-1,3.926761991E-1,2.843810874E-1,6.573473122E-1
9.019217833E0,4.714987857E-1,3.506535758E-1,2.997920090E-1,6.596546701E-1
9.029297833E0,5.351412696E-1,3.009386480E-1,3.151526445E-1,6.901169738E-1
9.039376833E0,5.524070376E-1,1.853826101E-1,3.357518005E-1,6.724949954E-1
9.049456833E0,4.934117745E-1,2.170062527E-2,3.802146131E-1,6.232890568E-1
9.059535833E0,4.078799099E-1,-1.274133141E-1,4.609734321E-1,6.285671632E-1
9.069614833E0,4.010499966E-1,-2.009050673E-1,5.373585337E-1,6.999700991E-1
9.079694833E0,4.451442884E-1,-2.025148058E-1,5.148713118E-1,7.101113657E-1
9.089774833E0,4.816559840E-1,-1.919076642E-1,4.623112750E-1,6.946601712E-1
9.099853833E0,4.463667950E-1,-1.675474329E-1,4.021539509E-1,6.237333230E-1
9.109933833E0,3.765238506E-1,-1.099247307E-1,3.325709152E-1,5.142538965E-1
9.120012833E0,2.477256965E-1,-7.596600249E-2,3.011204964E-1,3.972560982E-1
9.130092833E0,9.951529808E-2,-8.398121953E-2,3.041107625E-1,3.308164078E-1
9.140171833E0,-1.443750635E-2,-1.538031140E-1,3.659731346E-1,3.972407013E-1
9.150250833E0,-7.921683513E-2,-3.150982654E-1,5.516807038E-1,6.402451271E-1
9.160330833E0,-9.992599189E-2,-4.959158081E-1,8.224559051E-1,9.655834549E-1
9.170410833E0,-1.559615406E-1,-7.413158476E-1,1.132838976E0,1.362790275E0
9.180489833E0,-2.706155723E-1,-1.084627367E0,1.325253886E0,1.733766759E0
9.190569833E0,-3.537652447E-1,-1.305255970E0,1.432073160E0,1.969689451E0
9.200648833E0,-4.058906872E-1,-1.293867933E0,1.552336353E0,2.061210720E0
9.210727833E0,-4.372296435E-1,-1.192556589E0,1.639341168E0,2.073837131E0
9.220807833E0,-4.638344747E-1,-1.106211633E0,1.571427512E0,1.976924638E0
9.230886833E0,-5.104739863E-1,-1.041826626E0,1.386245023E0,1.807667467E0
9.240966833E0,-5.369249627E-1,-9.916740337E-1,1.078617745E0,1.560487759E0
9.251046833E0,-5.490409052E-1,-9.838858348E-1,6.868057644E-1,1.319537574E0
9.261125833E0,-5.401699481E-1,-9.808005515E-1,2.447650319E-1,1.146151480E0
9.271204833E0,-5.754823798E-1,-1.028787627E0,-1.504395032E-1,1.188366945E0
9.281284833E0,-6.065854740E-1,-1.070195854E0,-4.502777052E-1,1.309967601E0
9.291363833E0,-6.345073175E-1,-1.111008396E0,-5.951991910E-1,1.411099312E0
9.301443833E0,-7.068948971E-1,-1.166734846E0,-5.405195385E-1,1.467355434E0
9.311522833E0,-8.371404563E-1,-1.208785829E0,-3.645604473E-1,1.514883376E0
9.321602833E0,-9.651127642E-1,-1.224911280E0,-7.020634890E-2,1.561018649E0
9.331682833E0,-1.063520673E0,-1.230021016E0,2.305288160E-1,1.642306748E0
9.341757458E0,-1.150595508E0,-1.223855419E0,4.286067545E-1,1.733607758E0
9.351836458E0,-1.212021385E0,-1.197917463E0,5.327953666E-1,1.785461562E0
9.361916458E0,-1.241085848E0,-1.159728566E0,5.186790186E-1,1.776032757E0
9.371995458E0,-1.276865545E0,-1.119752761E0,4.568721950E-1,1.758682481E0
9.382075458E0,-1.320432272E0,-1.043859118E0,3.316751218E-1,1.715573265E0
9.392154458E0,-1.348341909E0,-9.750449909E-1,1.670777553E-1,1.672319830E0
9.402234458E0,-1.356552131E0,-9.584101009E-1,-7.707799673E-3,1.660976525E0
9.412313458E0,-1.342697300E0,-9.878419147E-1,-2.151114625E-1,1.680755969E0
9.422393458E0,-1.286005913E0,-1.023082791E0,-4.161352283E-1,1.695192654E0
9.432472458E0,-1.222873379E0,-1.048369660E0,-5.607245922E-1,1.705552788E0
9.442552458E0,-1.214435555E0,-1.055898242E0,-6.856573713E-1,1.749257227E0
9.452631458E0,-1.191925675E0,-1.000334345E0,-8.013720149E-1,1.750300752E0
9.462711458E0,-1.116086045E0,-8.554441416E-1,-9.109149224E-1,1.675469706E0
9.472790458E0,-1.045229047E0,-6.885720621E-1,-1.010854363E0,1.608869724E0
9.482870458E0,-1.004872661E0,-5.627966993E-1,-1.088005450E0,1.584381598E0
9.492949458E0,-9.540493206E-1,-4.891299681E-1,-1.141505134E0,1.566043487E0
9.503029458E0,-8.909480696E-1,-4.521159236E-1,-1.094840260E0,1.482185031E0
9.513108458E0,-8.918037365E-1,-4.665117685E-1,-1.055334132E0,1.458313158E0
9.523188458E0,-8.841970937E-1,-4.432268402E-1,-1.022291517E0,1.422439622E0
9.533267458E0,-8.199417485E-1,-3.782824007E-1,-9.338038480E-1,1.298996410E0
9.543347458E0,-7.686093347E-1,-3.237011276E-1,-8.225605702E-1,1.171387477E0
9.553426458E0,-7.480279396E-1,-2.933893079E-1,-6.563663292E-1,1.037516189E0
9.563506458E0,-7.732110203E-1,-3.041053538E-1,-4.002290475E-1,9.222356741E-1
9.573585458E0,-8.306698544E-1,-3.608957049E-1,-1.485286331E-1,9.177793153E-1
9.583665458E0,-8.631360807E-1,-4.146112977E-1,7.438535392E-2,9.604371936E-1
9.593744458E0,-8.493778747E-1,-4.462083355E-1,2.171012700E-1,9.837060608E-1
9.603824458E0,-8.015717704E-1,-4.665119147E-1,2.957024664E-1,9.734426631E-1
9.613903458E0,-7.623788340E-1,-5.123049688E-1,3.385988098E-1,9.789417867E-1
9.623983458E0,-7.458067285E-1,-5.790414338E-1,3.992993402E-1,1.025161754E0
9.634062458E0,-7.360923106E-1,-6.225394557E-1,3.725611925E-1,1.033532344E0
9.644142458E0,-6.628186586E-1,-5.876105283E-1,2.541860658E-1,9.215341899E-1
9.654221458E0,-5.653858463E-1,-5.498416083E-1,1.146451879E-1,7.969507315E-1
9.664301458E0,-5.327241037E-1,-5.287020233E-1,-4.204908192E-2,7.517239689E-1
9.674380458E0,-5.020944147E-1,-4.793659951E-1,-1.558446693E-1,7.114619592E-1
9.684460458E0,-4.685284732E-1,-4.580248274E-1,-2.158061117E-1,6.898390759E-1
9.694539458E0,-4.518007587E-1,-4.264396302E-1,-2.967087722E-1,6.884844074E-1
9.704619458E0,-3.989952850E-1,-3.700644314E-1,-3.648136318E-1,6.551594514E-1
9.714698458E0,-3.379456028E-1,-3.048138902E-1,-3.699919260E-1,5.865260125E-1
9.724778458E0,-3.343789474E-1,-2.527752788E-1,-2.921456051E-1,5.109341216E-1
9.734857458E0,-3.814358041E-1,-2.421193130E-1,-1.657755804E-1,4.812448207E-1
9.744937458E0,-4.228851809E-1,-1.904974620E-1,-3.298355877E-2,4.649828754E-1
9.755016458E0,-4.492146083E-1,-1.307487121E-1,2.518922031E-2,4.685333359E-1
9.765096458E0,-4.418359338E-1,-3.122135416E-2,1.101457554E-1,4.564272700E-1
9.775175458E0,-4.638377637E-1,1.932840988E-2,2.483388501E-1,5.264895469E-1
9.785255458E0,-5.559179617E-1,-2.245827824E-2,4.271010965E-1,7.014018114E-1
9.795334458E0,-6.214772359E-1,-9.781967863E-2,5.627506524E-1,8.440917848E-1
9.805414458E0,-6.178304006E-1,-1.630155484E-1,6.359776729E-1,9.015298517E-1
9.815493458E0,-6.192758323E-1,-2.381367745E-1,6.795265657E-1,9.497199763E-1
9.825573458E0,-6.299231004E-1,-3.298082520E-1,7.285455287E-1,1.018015316E0
9.835652458E0,-6.484520497E-1,-4.001053789E-1,7.928719175E-1,1.099645512E0
9.845732458E0,-6.453447662E-1,-3.988708855E-1,8.585507673E-1,1.145721288E0
9.855811458E0,-6.685054412E-1,-3.690595874E-1,8.441859126E-1,1.138312066E0
9.865891458E0,-6.854163198E-1,-3.212347721E-1,7.622494644E-1,1.074249299E0
9.875970458E0,-7.062989196E-1,-2.340315905E-1,6.391866249E-1,9.809120708E-1
9.886050458E0,-7.570315553E-1,-1.304715541E-1,4.090495723E-1,8.703109530E-1
9.896129458E0,-7.456332855E-1,-1.247664258E-2,1.215981120E-1,7.555863709E-1
9.906209458E0,-7.275075748E-1,1.145437387E-1,-9.770989716E-2,7.429231208E-1
9.916288458E0,-7.719094301E-1,2.167368422E-1,-2.462777066E-1,8.387322194E-1
9.926368458E0,-8.407364939E-1,2.845146963E-1,-3.129271942E-1,9.411216146E-1
9.936447458E0,-8.994554029E-1,3.249452689E-1,-3.704538560E-1,1.025595197E0
9.946527458E0,-9.477376898E-1,3.712122399E-1,-4.009424078E-1,1.093965297E0
9.956606458E0,-9.563816287E-1,4.252587850E-1,-3.741405255E-1,1.111526872E0
9.966686458E0,-9.973336999E-1,4.573695007E-1,-2.889050782E-1,1.134604563E0
9.976765458E0,-1.047375049E0,4.624878609E-1,-1.703685683E-1,1.157546959E0
9.986845458E0,-1.079841129E0,4.461279362E-1,-5.327982903E-3,1.168381524E0
9.996924458E0,-1.118666348E0,4.008155233E-1,1.914214683E-1,1.203623555E0
1.000700446E1,-1.143744764E0,3.517812113E-1,3.254297107E-1,1.240083305E0
1.001708346E1,-1.106582054E0,3.013812822E-1,3.764887673E-1,1.207103273E0
1.002716346E1,-1.048219021E0,2.349425867E-1,3.469082880E-1,1.128851848E0
1.003724246E1,-1.017120824E0,1.717210293E-1,2.788022590E-1,1.068528700E0
1.004732246E1,-9.702610914E-1,1.229292306E-1,1.796995550E-1,9.943893158E-1
1.005740146E1,-9.094847665E-1,9.533563524E-2,6.823349833E-2,9.170099422E-1
1.006748146E1,-8.091955163E-1,8.424902201E-2,-7.282707095E-2,8.168225411E-1
1.007756046E1,-7.429207622E-1,5.602436587E-2,-1.513171703E-1,7.602413264E-1
1.008764046E1,-7.163526953E-1,1.591246650E-2,-1.944345385E-1,7.424413650E-1
1.009771946E1,-6.709833451E-1,-3.557592183E-3,-2.139431888E-1,7.042747999E-1
1.010779946E1,-6.133993075E-1,1.598804176E-2,-2.371648210E-1,6.578460916E-1
1.011787846E1,-5.361640938E-1,3.592266172E-2,-2.637778383E-1,5.986160047E-1
1.012795846E1,-4.617365303E-1,6.310300514E-2,-2.665564352E-1,5.368751678E-1
1.013803746E1,-4.027775199E-1,8.048209950E-2,-2.247663850E-1,4.682168586E-1
1.014811746E1,-3.744412551E-1,8.614468932E-2,-1.628823781E-1,4.173222138E-1
1.015819646E1,-3.263596739E-1,1.142218494E-1,-1.375446385E-1,3.721233602E-1
1.016827646E1,-2.456239148E-1,1.398860098E-1,-1.581607515E-1,3.239043479E-1
1.017835546E1,-1.598975938E-1,1.904468836E-1,-1.942339790E-1,3.155377863E-1
1.018843546E1,-7.059964724E-2,2.568062031E-1,-1.760561550E-1,3.192640065E-1
1.019851446E1,-2.591197271E-2,2.783507077E-1,-1.199205458E-1,3.041898817E-1
1.020859446E1,2.049127489E-2,2.704310927E-1,-1.019964910E-1,2.897518808E-1
1.021867346E1,1.135312202E-1,2.859542808E-1,-4.796354055E-2,3.113835093E-1
1.022875346E1,1.838066759E-1,2.955052690E-1,5.645486712E-2,3.525555419E-1
1.023883246E1,2.190468579E-1,2.784191202E-1,2.116458178E-1,4.126653421E-1
1.024891146E1,2.347343528E-1,2.668929425E-1,3.677676451E-1,5.114539079E-1
1.025899146E1,3.007744874E-1,2.828375687E-1,4.814994979E-1,6.342745060E-1
1.026907046E1,3.573628903E-1,2.693717234E-1,5.676582205E-1,7.228452228E-1
1.027915046E1,4.058143445E-1,2.274183896E-1,6.433287925E-1,7.938994529E-1
1.028922946E1,4.538906997E-1,1.822023095E-1,7.206857014E-1,8.709778006E-1
1.029930946E1,4.812974766E-1,1.529498591E-1,7.793239188E-1,9.286477754E-1
1.030938846E1,5.015585174E-1,1.420586890E-1,7.510953158E-1,9.142678989E-1
1.031946846E1,5.518056880E-1,1.398076572E-1,6.866274244E-1,8.919040970E-1
1.032954746E1,6.184008696E-1,1.342320447E-1,5.718658769E-1,8.529176153E-1
1.033962833E1,6.497629224E-1,9.774848878E-2,4.097845674E-1,7.743836349E-1
1.034970733E1,7.221065017E-1,1.479873271E-1,1.798305327E-1,7.587338593E-1
1.035978733E1,8.463700669E-1,2.762908798E-1,-6.260613799E-2,8.925236518E-1
1.036986633E1,9.745465889E-1,4.630977255E-1,-2.609688359E-1,1.110092469E0
1.037994633E1,1.025304441E0,6.165174083E-1,-4.101190281E-1,1.264729429E0
1.039002533E1,1.132342547E0,7.816623665E-1,-5.371532965E-1,1.477067826E0
1.040010533E1,1.179935813E0,9.035193640E-1,-4.645092434E-1,1.557037122E0
1.041018433E1,1.140788558E0,9.238004315E-1,-2.824058980E-1,1.494844093E0
1.042026433E1,1.109182676E0,8.540389095E-1,-9.333325624E-3,1.399912776E0
1.043034333E1,1.046274310E0,7.271354726E-1,3.763279688E-1,1.328547578E0
1.044042333E1,9.719344184E-1,5.496504043E-1,7.979291743E-1,1.372393183E0
1.045050233E1,9.211451378E-1,4.046815561E-1,1.189911894E0,1.558257309E0
1.046058233E1,8.637540583E-1,2.900882623E-1,1.459331126E0,1.720427158E0
1.047066133E1,8.057717523E-1,1.990361510E-1,1.522120281E0,1.733705182E0
1.048074133E1,7.713584031E-1,1.506959036E-1,1.397509099E0,1.603351092E0
1.049082033E1,7.497656590E-1,1.417556570E-1,1.133555260E0,1.366451879E0
1.050090033E1,7.267979421E-1,1.810879764E-1,7.273000717E-1,1.044027537E0
1.051097933E1,7.594687479E-1,2.800129250E-1,2.133613908E-1,8.370920501E-1
1.052105933E1,8.301281829E-1,4.332159685E-1,-2.803003156E-1,9.774237271E-1
1.053113833E1,8.922144303E-1,5.804530978E-1,-7.449966699E-1,1.299227627E0
1.054121833E1,9.421371536E-1,6.807249525E-1,-1.096888540E0,1.598178133E0
1.055129733E1,9.785565363E-1,7.318611923E-1,-1.324082689E0,1.801773755E0
1.056137733E1,1.008711066E0,7.453518882E-1,-1.454714749E0,1.920740079E0
1.057145633E1,9.978204806E-1,7.295940806E-1,-1.517018001E0,1.956858924E0
1.058153633E1,9.677894003E-1,7.188920680E-1,-1.529018826E0,1.947131403E0
1.059161533E1,9.426109242E-1,7.506405486E-1,-1.497797619E0,1.922335635E0
1.060169533E1,9.336202455E-1,8.025587073E-1,-1.449980843E0,1.902154485E0
1.061177433E1,8.945248845E-1,9.147847559E-1,-1.352337604E0,1.861672075E0
1.062185433E1,8.447905147E-1,1.037364469E0,-1.219628028E0,1.810328308E0
1.063193333E1,8.198859076E-1,1.128132698E0,-1.101807802E0,1.777322908E0
1.064201333E1,7.784466903E-1,1.173533550E0,-9.459613788E-1,1.696467852E0
1.065209233E1,7.225412422E-1,1.158520020E0,-7.683013326E-1,1.566691233E0
1.066217233E1,6.912613428E-1,1.146716538E0,-5.413124210E-1,1.444236892E0
1.067225133E1,6.953033768E-1,1.169970988E0,-3.363546485E-1,1.401932005E0
1.068233133E1,6.178311315E-1,1.164961824E0,-1.381381309E-1,1.325870847E0
1.069241033E1,5.476954974E-1,1.144378675E0,5.256003678E-2,1.269777724E0
1.070249033E1,5.081199704E-1,1.133735939E0,2.421016252E-1,1.265763122E0
1.071256933E1,4.828233075E-1,1.135620789E0,4.032210678E-1,1.298206513E0
1.072264933E1,4.497946886E-1,1.103958481E0,5.587622666E-1,1.316531375E0
1.073272833E1,4.194019946E-1,1.065284705E0,6.830009812E-1,1.333124103E0
1.074280833E1,3.834050001E-1,1.012048876E0,8.298824537E-1,1.363798815E0
1.075288733E1,3.296049151E-1,9.912650210E-1,8.750083405E-1,1.362675801E0
1.076296633E1,3.020605459E-1,9.951096383E-1,8.167116004E-1,1.322309194E0
1.077304633E1,2.930908440E-1,1.043914009E0,6.985206610E-1,1.289802238E0
1.078312533E1,2.679262917E-1,1.097117751E0,5.453382289E-1,1.254131429E0
1.079320533E1,2.554317603E-1,1.102224270E0,4.193108511E-1,1.206633878E0
1.080328433E1,2.225477321E-1,1.122901340E0,3.374603570E-1,1.193446440E0
1.081336433E1,1.874793668E-1,1.146786485E0,2.845974344E-1,1.196354235E0
1.082344333E1,1.798455344E-1,1.194841535E0,2.958211648E-1,1.243985881E0
1.083352333E1,1.595249434E-1,1.220742800E0,3.314336318E-1,1.274954683E0
1.084360233E1,1.208848613E-1,1.209004295E0,3.993741846E-1,1.278985643E0
1.085368233E1,5.746890223E-2,1.175835307E0,4.980909723E-1,1.278274603E0
1.086376133E1,4.053728431E-3,1.150312649E0,5.619694644E-1,1.280252046E0
1.087384133E1,2.093851380E-4,1.145271764E0,5.894098628E-1,1.288041709E0
1.088392033E1,1.929999607E-2,1.136920040E0,5.842970574E-1,1.278421964E0
1.089400033E1,-3.059343629E-2,1.077526947E0,5.921983999E-1,1.229918381E0
1.090407933E1,-2.847466115E-2,1.059881804E0,5.165213960E-1,1.179387382E0
1.091415933E1,3.033941131E-2,1.075558701E0,3.923955327E-1,1.145304000E0
1.092423833E1,7.826103464E-2,1.045109837E0,3.122003853E-1,1.093548555E0
1.093431833E1,1.181528960E-1,1.017649339E0,2.927110308E-1,1.065481127E0
1.094439733E1,2.043781307E-1,1.034488809E0,2.964134878E-1,1.095353126E0
1.095447733E1,3.241213597E-1,1.120537019E0,3.073249769E-1,1.206277956E0
1.096455633E1,4.711046834E-1,1.196374236E0,3.227932012E-1,1.325687138E0
1.097463633E1,5.847948016E-1,1.237105941E0,4.368127370E-1,1.436391811E0
1.098471533E1,6.104186528E-1,1.185453976E0,6.758334643E-1,1.494878903E0
1.099479533E1,6.500745790E-1,1.052833132E0,1.019878955E0,1.603498564E0
1.100487433E1,7.886816566E-1,1.004110038E0,1.319504319E0,1.836122918E0
1.101495433E1,9.219223058E-1,9.788120596E-1,1.455187204E0,1.981308554E0
1.102503333E1,9.585371317E-1,8.093528064E-1,1.483920422E0,1.943158567E0
1.103511333E1,8.731451252E-1,5.364356969E-1,1.499786841E0,1.816454303E0
1.104519233E1,7.357582884E-1,2.691672901E-1,1.654377283E0,1.830506892E0
1.105527233E1,5.403132049E-1,7.351645768E-2,1.904226469E0,1.980762851E0
1.106535133E1,3.924213336E-1,-8.958826080E-2,2.126055797E0,2.163823887E0
1.107543133E1,2.508935717E-1,-2.894093274E-1,2.185034323E0,2.218350814E0
1.108551033E1,2.036206605E-1,-4.221386377E-1,2.189781677E0,2.239376296E0
1.109559033E1,2.924663980E-1,-4.996222119E-1,2.014038933E0,2.095593418E0
1.110566933E1,4.189945898E-1,-6.079530647E-1,1.605507424E0,1.767149536E0
1.111574933E1,4.979027651E-1,-8.326669709E-1,1.129775035E0,1.489171943E0
1.112582833E1,5.374871725E-1,-9.982974672E-1,6.189839101E-1,1.291755153E0
1.113590833E1,6.701820572E-1,-8.999187217E-1,1.180190313E-1,1.128240306E0
1.114598733E1,6.255461671E-1,-8.553530712E-1,-4.279811025E-1,1.142849381E0
1.115606733E1,6.077299203E-1,-8.224193600E-1,-1.063626069E0,1.475469306E0
1.116614633E1,5.993776844E-1,-7.044028138E-1,-1.557621651E0,1.811524811E0
1.117622533E1,5.442777998E-1,-6.444654912E-1,-1.884734775E0,2.064896914E0
1.118630533E1,5.020562981E-1,-6.128640680E-1,-2.078567051E0,2.224433383E0
1.119638433E1,4.255730363E-1,-5.741208556E-1,-2.136076756E0,2.252454455E0
1.120646433E1,3.514727707E-1,-5.311875285E-1,-2.008436716E0,2.107014793E0
1.121654333E1,3.464844745E-1,-5.098772049E-1,-1.691028215E0,1.799889630E0
1.122662333E1,3.099713536E-1,-5.682911816E-1,-1.139110699E0,1.310194754E0
1.123670233E1,1.630882001E-1,-7.573657237E-1,-4.349960071E-1,8.884943031E-1
1.124678233E1,8.715238385E-2,-9.380958505E-1,2.853447086E-1,9.843987837E-1
1.125686133E1,7.319661498E-2,-1.016887228E0,9.285121179E-1,1.378967777E0
1.126694133E1,1.050656945E-2,-1.072317516E0,1.446640913E0,1.800762388E0
1.127702033E1,-9.783429667E-2,-1.178118791E0,1.756659703E0,2.117401413E0
1.128710033E1,-2.257441856E-1,-1.271489323E0,1.816848017E0,2.229031685E0
1.129717933E1,-2.368012704E-1,-1.254218402E0,1.661510886E0,2.095174710E0
1.130725933E1,-1.127609226E-1,-1.123748163E0,1.229281197E0,1.669328374E0
1.131733833E1,8.683276042E-2,-9.250198683E-1,5.689615649E-1,1.089458098E0
1.132741833E1,2.200399344E-1,-7.298915577E-1,-1.016877580E-1,7.690901500E-1
1.133749687E1,1.905155153E-1,-6.300730084E-1,-7.075645494E-1,9.664035126E-1
1.134757688E1,1.342845965E-1,-5.447713414E-1,-1.268486778E0,1.387035281E0
1.135765588E1,1.409560869E-1,-3.759641258E-1,-1.701569576E0,1.748301079E0
1.136773588E1,1.452624881E-1,-2.446299613E-1,-1.991973295E0,2.012188514E0
1.137781488E1,9.628127620E-2,-1.845426576E-1,-2.128526246E0,2.138679512E0
1.138789487E1,-4.820334949E-3,-1.326926190E-1,-2.051044791E0,2.055338245E0
1.139797387E1,-1.525262283E-1,-8.943696409E-2,-1.788199584E0,1.796919857E0
1.140805387E1,-2.923622810E-1,-1.262694526E-1,-1.370836440E0,1.407342255E0
1.141813287E1,-4.463429311E-1,-1.839966738E-1,-9.343260044E-1,1.051685253E0
1.142821288E1,-5.631676320E-1,-1.507344952E-1,-5.241420722E-1,7.839665692E-1
1.143829188E1,-6.763000721E-1,-9.150030032E-2,-1.330089533E-1,6.953024336E-1
1.144837188E1,-8.172634314E-1,-7.521405056E-2,2.298084390E-1,8.522843354E-1
1.145845088E1,-9.821112780E-1,-4.463004291E-2,5.368322843E-1,1.120144323E0
1.146853087E1,-1.092657202E0,3.163782209E-3,7.367398167E-1,1.317837368E0
1.147860987E1,-1.173407470E0,2.955489770E-2,8.245848763E-1,1.434468124E0
1.148868987E1,-1.236328699E0,6.387001365E-2,8.564814377E-1,1.505373204E0
1.149876887E1,-1.260872095E0,6.520873368E-2,8.373914480E-1,1.515016520E0
1.150884888E1,-1.288711273E0,-9.219597280E-3,7.580763066E-1,1.495172710E0
1.151892788E1,-1.340984212E0,-1.025741959E-1,6.430142123E-1,1.490713721E0
1.152900688E1,-1.326507529E0,-1.607287024E-1,5.056525916E-1,1.428684879E0
1.153908688E1,-1.310737296E0,-1.850580896E-1,3.679939324E-1,1.373935330E0
1.154916588E1,-1.304675634E0,-1.983879872E-1,2.615044409E-1,1.345332998E0
1.155924587E1,-1.318813470E0,-2.147714469E-1,1.814899725E-1,1.348456286E0
1.156932487E1,-1.332779399E0,-2.291748932E-1,1.312582970E-1,1.358694520E0
1.157940487E1,-1.335910729E0,-2.471360779E-1,1.148802459E-1,1.363426268E0
1.158948387E1,-1.340738775E0,-2.556484544E-1,9.376361132E-2,1.368111183E0
1.159956388E1,-1.331983739E0,-2.471346161E-1,7.327379823E-2,1.356696447E0
1.160964288E1,-1.337119348E0,-2.295584705E-1,1.985772908E-2,1.356827024E0
1.161972288E1,-1.328455090E0,-2.337634957E-1,-3.181703925E-2,1.349240758E0
1.162980188E1,-1.321152064E0,-2.407171507E-1,-1.086026752E-1,1.347286927E0
1.163988187E1,-1.275622573E0,-2.489573394E-1,-1.645406485E-1,1.310063484E0
1.164996087E1,-1.200410277E0,-2.577506746E-1,-1.032758617E-1,1.232106386E0
1.166004087E1,-1.188093629E0,-2.874855204E-1,3.003305376E-2,1.222749516E0
1.167011987E1,-1.144026015E0,-3.254586545E-1,2.087608016E-1,1.207600899E0
1.168019988E1,-1.103157120E0,-3.593580334E-1,4.053675807E-1,1.228990115E0
1.169027888E1,-1.093824453E0,-4.336208881E-1,5.630973923E-1,1.304437688E0
1.170035888E1,-1.098330171E0,-5.870946577E-1,5.881468642E-1,1.377289380E0
1.171043788E1,-1.088195484E0,-7.691686209E-1,5.417638260E-1,1.438505413E0
1.172051787E1,-1.039111398E0,-9.138706899E-1,4.945767957E-1,1.469529973E0
1.173059687E1,-9.806433345E-1,-1.052463442E0,4.915274727E-1,1.520177589E0
1.174067687E1,-9.205599777E-1,-1.171586135E0,5.290952486E-1,1.581134569E0
1.175075587E1,-8.628717135E-1,-1.216554001E0,6.796154433E-1,1.639032758E0
1.176083588E1,-8.212640233E-1,-1.245067363E0,8.590045112E-1,1.721207740E0
1.177091488E1,-7.561992773E-1,-1.246325245E0,9.813042891E-1,1.757305344E0
1.178099488E1,-6.700391659E-1,-1.215156809E0,9.978682816E-1,1.709180991E0
1.179107388E1,-5.940985988E-1,-1.172764934E0,8.988755053E-1,1.592579012E0
1.180115388E1,-5.340908904E-1,-1.122711598E0,7.454808193E-1,1.449646876E0
1.181123288E1,-5.174795720E-1,-1.105055346E0,5.335595977E-1,1.331772604E0
1.182131188E1,-5.299307792E-1,-1.123573039E0,3.560124028E-1,1.292280092E0
1.183139187E1,-5.564544437E-1,-1.144738937E0,2.651250368E-1,1.300138480E0
1.184147087E1,-5.953272450E-1,-1.188420854E0,3.035523534E-1,1.363415815E0
1.185155087E1,-5.650024883E-1,-1.248427027E0,4.641227424E-1,1.446792236E0
1.186162987E1,-6.184211887E-1,-1.393190053E0,7.561367851E-1,1.701518771E0
1.187170988E1,-6.878891804E-1,-1.672879481E0,1.089543852E0,2.111592548E0
1.188178888E1,-7.473338751E-1,-1.996430043E0,1.304166487E0,2.499018020E0
1.189186888E1,-7.211762828E-1,-2.279183996E0,1.400749041E0,2.770717019E0
1.190194788E1,-7.043879034E-1,-2.495383480E0,1.458095024E0,2.974750767E0
1.191202787E1,-6.956990140E-1,-2.643051695E0,1.407944040E0,3.074414709E0
1.192210687E1,-7.110831115E-1,-2.694458953E0,1.217397900E0,3.041020534E0
1.193218687E1,-6.945898703E-1,-2.641389332E0,8.735383505E-1,2.867483555E0
1.194226587E1,-6.296062544E-1,-2.485335039E0,4.472353989E-1,2.602559086E0
1.195234588E1,-5.981422408E-1,-2.308703957E0,3.492191076E-2,2.385185033E0
1.196242488E1,-5.836708937E-1,-2.168437293E0,-3.698007220E-1,2.275861284E0
1.197250488E1,-5.502016506E-1,-2.077588519E0,-6.486152601E-1,2.244949368E0
1.198258388E1,-5.340475479E-1,-1.992597778E0,-8.539034003E-1,2.232667397E0
1.199266387E1,-4.306471404E-1,-1.879006551E0,-9.875017530E-1,2.165936816E0
1.200274287E1,-3.683541209E-1,-1.795680073E0,-1.045816035E0,2.110422437E0
1.201282287E1,-3.550151601E-1,-1.764794788E0,-1.040202123E0,2.079075964E0
1.202290187E1,-3.674909256E-1,-1.748934508E0,-9.922900379E-1,2.044128423E0
1.203298188E1,-3.526713037E-1,-1.745272689E0,-8.762672460E-1,1.984489378E0
1.204306088E1,-3.251782805E-1,-1.771662781E0,-7.300927019E-1,1.943595965E0
1.205314088E1,-3.046020748E-1,-1.758701697E0,-5.880065310E-1,1.879246062E0
1.206321988E1,-2.635206340E-1,-1.715078398E0,-4.885752136E-1,1.802676559E0
1.207329987E1,-2.360402553E-1,-1.676348049E0,-3.703047520E-1,1.732911825E0
1.208337887E1,-2.016857437E-1,-1.639792719E0,-2.511297262E-1,1.671126399E0
1.209345787E1,-1.560052302E-1,-1.606321356E0,-1.192089397E-1,1.618275843E0
1.210353787E1,-8.679444289E-2,-1.581787755E0,5.010596037E-2,1.584959427E0
1.211361687E1,-4.342149653E-2,-1.589925179E0,2.320724809E-1,1.607359679E0
1.212369688E1,-3.315122768E-2,-1.596661171E0,3.929422474E-1,1.644636589E0
1.213377588E1,5.124134347E-3,-1.591942761E0,5.379830164E-1,1.680396898E0
1.214385588E1,4.127037898E-2,-1.526196375E0,7.088351494E-1,1.683278316E0
1.215393488E1,7.177800737E-2,-1.404727779E0,9.467618626E-1,1.695514742E0
1.216401487E1,6.475762099E-2,-1.314675103E0,1.200556750E0,1.781544467E0
1.217409387E1,3.943501107E-2,-1.253457972E0,1.460829767E0,1.925288450E0
1.218417387E1,-1.084786411E-2,-1.273483369E0,1.705497150E0,2.128520166E0
1.219425287E1,5.069853913E-2,-1.267722839E0,1.848805389E0,2.242269588E0
1.220433288E1,8.473415818E-2,-1.299035848E0,1.925510334E0,2.324277104E0
1.221441188E1,6.990364585E-2,-1.422460776E0,1.973256943E0,2.433520935E0
1.222449188E1,5.385636449E-2,-1.582672585E0,1.981841825E0,2.536818881E0
1.223457088E1,5.100029200E-2,-1.747886979E0,1.956881230E0,2.624327356E0
1.224465088E1,3.002947234E-2,-1.909795357E0,1.931797260E0,2.716626719E0
1.225472988E1,-1.411009882E-2,-2.092781047E0,1.885217171E0,2.816731330E0
1.226480987E1,-6.848357644E-2,-2.219966320E0,1.863750288E0,2.899397454E0
1.227488887E1,-5.507123318E-2,-2.433692285E0,1.873878250E0,3.072020617E0
1.228496887E1,-1.222301229E-1,-2.666604280E0,1.803266689E0,3.221411079E0
1.229504787E1,-1.708717943E-1,-2.747986704E0,1.649793066E0,3.209742241E0
1.230512788E1,-1.898868665E-1,-2.819193512E0,1.406262381E0,3.156181706E0
1.231520688E1,-2.680059965E-1,-2.841961400E0,1.118404539E0,3.065844178E0
1.232528688E1,-3.625715535E-1,-2.774887989E0,8.037869149E-1,2.911620664E0
1.233536588E1,-4.443932501E-1,-2.653826944E0,4.955415863E-1,2.736027097E0
1.234544558E1,-4.905796391E-1,-2.519166152E0,2.433950293E-1,2.578004582E0
1.235552458E1,-5.840833417E-1,-2.442869782E0,1.081009841E-1,2.514050903E0
1.236560358E1,-6.957242301E-1,-2.409735365E0,7.562613308E-2,2.509297919E0
1.237568358E1,-7.524654646E-1,-2.372042459E0,1.163689470E-1,2.491250978E0
1.238576258E1,-8.186157462E-1,-2.355311382E0,1.249316096E-1,2.496644018E0
1.239584258E1,-8.372407360E-1,-2.304584447E0,3.861910522E-2,2.452258747E0
1.240592158E1,-8.201724212E-1,-2.204821301E0,-1.356325990E-1,2.356335284E0
1.241600158E1,-7.899272597E-1,-2.067513328E0,-3.892479765E-1,2.247245074E0
1.242608058E1,-7.082684080E-1,-1.861926980E0,-6.506506759E-1,2.095653244E0
1.243616058E1,-6.233301455E-1,-1.680943376E0,-8.111099678E-1,1.967742484E0
1.244623958E1,-5.588098484E-1,-1.559409876E0,-8.496513051E-1,1.861702164E0
1.245631958E1,-5.248480869E-1,-1.450639532E0,-8.358331650E-1,1.754547704E0
1.246639858E1,-4.473602369E-1,-1.360949822E0,-7.615922374E-1,1.622448254E0
1.247647858E1,-3.678338283E-1,-1.298423645E0,-6.370950758E-1,1.492345745E0
1.248655758E1,-2.842589354E-1,-1.284066391E0,-4.972612524E-1,1.406022188E0
1.249663758E1,-2.309058152E-1,-1.355245132E0,-3.446559405E-1,1.417319506E0
1.250671658E1,-1.802365122E-1,-1.489580526E0,-2.433500057E-1,1.520050845E0
1.251679658E1,-9.102612767E-2,-1.567246461E0,-1.208455753E-1,1.574531955E0
1.252687558E1,-2.045251882E-2,-1.565951156E0,1.154497647E-1,1.570334352E0
1.253695558E1,-1.684739973E-2,-1.537908348E0,4.372085935E-1,1.598936296E0
1.254703458E1,-1.854554079E-2,-1.436845365E0,6.564347416E-1,1.579802238E0
1.255711458E1,8.171136696E-2,-1.214054316E0,7.384091967E-1,1.423324549E0
1.256719358E1,2.063395426E-1,-9.542264181E-1,7.729820287E-1,1.245241053E0
1.257727358E1,2.924145039E-1,-7.655346494E-1,7.212885493E-1,1.091699003E0
1.258735258E1,3.827793480E-1,-6.520890909E-1,6.035349816E-1,9.674681834E-1
1.259743158E1,4.682659698E-1,-5.600968205E-1,4.493561840E-1,8.572645140E-1
1.260751158E1,5.664258467E-1,-4.771345514E-1,2.709517872E-1,7.886130173E-1
1.261759058E1,6.331923518E-1,-4.380696691E-1,8.965769649E-2,7.751619778E-1
1.262767058E1,7.021128979E-1,-3.524504252E-1,-4.796237111E-2,7.870731940E-1
1.263774958E1,7.442926651E-1,-2.046632190E-1,-9.729182124E-2,7.780259013E-1
1.264782958E1,7.575956655E-1,-6.782090418E-2,-5.680102229E-2,7.627432225E-1
1.265790858E1,7.341535932E-1,3.462881908E-2,-8.060386777E-3,7.350140293E-1
1.266798858E1,7.169200945E-1,9.688456267E-2,6.551863611E-2,7.263977781E-1
1.267806758E1,7.127332688E-1,1.417539029E-1,1.696423441E-1,7.462314697E-1
1.268814758E1,6.153602444E-1,1.043276297E-1,3.287246168E-1,7.054164432E-1
1.269822658E1,4.401398027E-1,-2.437280282E-2,5.060735911E-1,6.711390013E-1
1.270830658E1,3.812375835E-1,-7.753261775E-2,6.524141961E-1,7.596036369E-1
1.271838558E1,3.289410368E-1,-7.370605364E-2,7.911078125E-1,8.599339272E-1
1.272846558E1,2.352320239E-1,-8.277669311E-2,8.896000671E-1,9.238908839E-1
1.273854458E1,1.659086046E-1,-9.245968223E-2,1.012870483E0,1.030524659E0
1.274862458E1,8.882117920E-2,-9.497471586E-2,1.053175925E0,1.061173373E0
1.275870358E1,4.062762380E-2,-1.136114001E-1,9.797366506E-1,9.871383178E-1
1.276878358E1,5.732281320E-2,-1.283987162E-1,8.744920313E-1,8.857248151E-1
1.277886258E1,5.121525027E-2,-1.912994076E-1,7.160932982E-1,7.429724604E-1
1.278894258E1,5.939850166E-2,-2.875678200E-1,5.536827904E-1,6.267280634E-1
1.279902158E1,7.578579862E-2,-3.630113737E-1,3.926650894E-1,5.400987105E-1
1.280910158E1,1.125375590E-1,-4.102988300E-1,1.661305064E-1,4.567375365E-1
1.281918058E1,1.896004991E-1,-3.836599387E-1,-8.161777496E-2,4.356658800E-1
1.282926058E1,2.912920943E-1,-3.451466681E-1,-2.996709716E-1,5.420147581E-1
1.283933958E1,3.757588520E-1,-3.224691193E-1,-4.859322721E-1,6.937659698E-1
1.284941858E1,4.650839881E-1,-3.366579728E-1,-5.970381403E-1,8.283092705E-1
1.285949858E1,5.552236048E-1,-3.695951924E-1,-6.350204837E-1,9.209369535E-1
1.286957758E1,6.492768726E-1,-3.811457822E-1,-5.808091933E-1,9.508795315E-1
1.287965758E1,7.108523657E-1,-4.009042548E-1,-5.123751354E-1,9.636200427E-1
1.288973658E1,7.948874527E-1,-4.032555664E-1,-4.251890570E-1,9.875458716E-1
1.289981658E1,8.618142445E-1,-4.246046278E-1,-2.830987930E-1,1.001577660E0
1.290989558E1,8.908324409E-1,-4.423249072E-1,-1.482222390E-1,1.005586194E0
1.291997558E1,9.461723171E-1,-4.610726885E-1,-7.833514810E-3,1.052564222E0
1.293005458E1,9.982911084E-1,-4.823531914E-1,8.038693607E-2,1.111625745E0
1.294013458E1,9.759609573E-1,-5.108772980E-1,1.955612969E-1,1.118811702E0
1.295021358E1,9.943261115E-1,-4.809782917E-1,2.815978128E-1,1.139878003E0
1.296029358E1,1.048898979E0,-3.929662941E-1,3.061759990E-1,1.161187030E0
1.297037258E1,1.090993962E0,-2.633149581E-1,2.734350997E-1,1.155149058E0
1.298045258E1,1.107521848E0,-1.461647500E-1,2.238384318E-1,1.139329812E0
1.299053158E1,1.130186386E0,-2.398454770E-2,1.683366609E-1,1.142905839E0
1.300061158E1,1.205542744E0,1.423979006E-1,1.352151078E-1,1.221430962E0
1.301069058E1,1.291642044E0,3.041078389E-1,8.779009581E-2,1.329860086E0
1.302077058E1,1.361230781E0,4.113832692E-1,3.814840436E-2,1.422547269E0
1.303084958E1,1.408838810E0,4.733450440E-1,9.701115489E-3,1.486262573E0
1.304092958E1,1.446879041E0,4.965891881E-1,-2.949920297E-3,1.529728239E0
1.305100858E1,1.500604574E0,5.303907723E-1,-3.109724700E-2,1.591884260E0
1.306108858E1,1.570905648E0,5.652648821E-1,-1.115941107E-2,1.669548884E0
1.307116758E1,1.606133514E0,5.744296617E-1,2.096636117E-2,1.705893869E0
1.308124658E1,1.634529494E0,5.398853349E-1,1.066707551E-1,1.724685911E0
1.309132658E1,1.652741817E0,4.909294488E-1,1.699832368E-1,1.732472666E0
1.310140558E1,1.665067016E0,4.409519809E-1,2.333495128E-1,1.738199877E0
1.311148558E1,1.695144655E0,3.633364789E-1,3.239141124E-1,1.763646549E0
1.312156458E1,1.725599732E0,2.567074583E-1,4.506045645E-1,1.801842842E0
1.313164458E1,1.726787447E0,1.125555392E-1,5.904015505E-1,1.828397558E0
1.314172358E1,1.708513583E0,-3.990278833E-2,7.663056779E-1,1.872921591E0
1.315180358E1,1.694508040E0,-1.801272058E-1,9.617576319E-1,1.956727127E0
1.316188258E1,1.644626027E0,-3.150843783E-1,1.203227173E0,2.061996257E0
1.317196258E1,1.568374242E0,-4.339485515E-1,1.407231265E0,2.151373734E0
1.318204158E1,1.489273255E0,-5.441400614E-1,1.524741588E0,2.199740927E0
1.319212158E1,1.415262415E0,-6.115332417E-1,1.445858556E0,2.113633737E0
1.320220058E1,1.407085377E0,-5.828697520E-1,1.204208336E0,1.941582891E0
1.321228058E1,1.405087091E0,-5.286175311E-1,9.496714371E-1,1.776395808E0
1.322235958E1,1.339832456E0,-5.107734369E-1,6.606646174E-1,1.578771121E0
1.323243958E1,1.303416144E0,-5.017143457E-1,3.741411102E-1,1.445888135E0
1.324251858E1,1.321025472E0,-4.731401722E-1,9.553356349E-2,1.406448215E0
1.325259858E1,1.311052022E0,-4.508172570E-1,-1.557172000E-1,1.395113419E0
1.326267758E1,1.294136758E0,-4.534603447E-1,-3.082441592E-1,1.405500158E0
1.327275758E1,1.279239807E0,-4.562972675E-1,-4.028544474E-1,1.416669823E0
1.328283658E1,1.277266957E0,-4.239478393E-1,-4.289926708E-1,1.412507473E0
1.329291558E1,1.268761597E0,-3.621923250E-1,-3.620905834E-1,1.368228365E0
1.330299558E1,1.238324500E0,-3.288174413E-1,-2.269643533E-1,1.301184574E0
1.331307458E1,1.186978638E0,-3.185849601E-1,-5.382128119E-2,1.230167222E0
1.332315458E1,1.118868662E0,-3.064594428E-1,6.848258972E-2,1.162099108E0
1.333323358E1,1.105781351E0,-3.288222653E-1,1.445788389E-1,1.162660535E0
1.334331321E1,1.064381017E0,-3.603897746E-1,1.734447885E-1,1.137044781E0
1.335339221E1,9.852444354E-1,-4.014958468E-1,2.072709310E-1,1.083912705E0
1.336347221E1,8.965199545E-1,-4.119908680E-1,1.944684523E-1,1.005635363E0
1.337355121E1,8.120208909E-1,-3.854367614E-1,1.235224307E-1,9.073021631E-1
1.338363121E1,7.643620634E-1,-3.657936251E-1,5.706648588E-2,8.493002555E-1
1.339371021E1,6.757859556E-1,-3.706340964E-1,4.174210310E-2,7.718799741E-1
1.340379021E1,5.711390680E-1,-4.157446343E-1,8.786727905E-2,7.118736508E-1
1.341386921E1,4.560684952E-1,-4.474331810E-1,2.063540876E-1,6.713992353E-1
1.342394921E1,3.276608255E-1,-4.601660778E-1,3.284509671E-1,6.534481414E-1
1.343402821E1,2.198821692E-1,-4.296582301E-1,4.390405262E-1,6.524652838E-1
1.344410821E1,1.005965579E-1,-4.071679384E-1,4.943768209E-1,6.483161563E-1
1.345418721E1,-1.884254280E-2,-3.801549715E-1,5.111057049E-1,6.372612379E-1
1.346426721E1,-1.461265238E-1,-3.392658310E-1,4.875431800E-1,6.116801594E-1
1.347434621E1,-2.407147022E-1,-3.004789107E-1,4.286424226E-1,5.761644470E-1
1.348442521E1,-3.245335884E-1,-2.322078440E-1,4.044331956E-1,5.681626022E-1
1.349450521E1,-4.162846246E-1,-1.757099998E-1,3.992332667E-1,6.029544709E-1
1.350458421E1,-4.966214574E-1,-1.588885836E-1,3.300811708E-1,6.171158994E-1
1.351466421E1,-5.619858732E-1,-1.408869070E-1,2.492282116E-1,6.307074945E-1
1.352474321E1,-5.885072354E-1,-9.967295364E-2,1.833751148E-1,6.244212492E-1
1.353482321E1,-6.406767878E-1,-6.959239125E-2,6.704943717E-2,6.479239727E-1
1.354490221E1,-6.601483814E-1,-4.678927347E-2,-5.893525600E-2,6.644234237E-1
1.355498221E1,-6.596751954E-1,-4.224993378E-2,-1.528093797E-1,6.784593775E-1
1.356506121E1,-6.823158337E-1,-6.596521720E-2,-2.329945868E-1,7.240115913E-1
1.357514121E1,-6.842528701E-1,-7.887689263E-2,-2.662529647E-1,7.384539225E-1
1.358522021E1,-6.667636288E-1,-7.654867753E-2,-2.769972235E-1,7.260584677E-1
1.359530021E1,-6.476862106E-1,-5.487071022E-2,-2.648677593E-1,7.018996739E-1
1.360537921E1,-6.221564631E-1,-5.420354292E-2,-1.947426867E-1,6.541723035E-1
1.361545921E1,-6.161522497E-1,-7.662308335E-2,-1.118584049E-1,6.308938060E-1
1.362553821E1,-6.344274299E-1,-9.434160858E-2,-9.358351707E-2,6.481947065E-1
1.363561821E1,-5.757827805E-1,-4.229685768E-2,-7.399125159E-2,5.820563029E-1
1.364569721E1,-5.320401257E-1,3.217006490E-2,6.103323698E-3,5.330467699E-1
1.365577721E1,-5.537224053E-1,1.905271366E-2,7.194531083E-2,5.587017413E-1
1.366585621E1,-5.586079001E-1,-5.379759997E-2,1.095107478E-1,5.717775544E-1
1.367593521E1,-5.312622998E-1,-1.090045251E-1,1.075636250E-1,5.528937973E-1
1.368601521E1,-5.272435816E-1,-1.442557803E-1,6.303415418E-2,5.502443358E-1
1.369609421E1,-5.185188049E-1,-1.310235313E-1,-3.165097833E-3,5.348260789E-1
1.370617421E1,-4.915161438E-1,-8.193293989E-2,-2.595345140E-2,4.989736545E-1
1.371625321E1,-4.744990651E-1,-7.214426234E-2,3.394308686E-3,4.799642473E-1
1.372633321E1,-4.893561092E-1,-1.088690159E-1,7.160207927E-2,5.064076638E-1
1.373641221E1,-4.940284730E-1,-1.404143058E-1,1.503254825E-1,5.351430277E-1
1.374649221E1,-4.610072728E-1,-1.424837816E-1,2.639415604E-1,5.499949826E-1
1.375657121E1,-4.467767579E-1,-1.314556405E-1,3.260875225E-1,5.685271578E-1
1.376665121E1,-4.103159331E-1,-1.137938333E-1,3.516573966E-1,5.522419089E-1
1.377673021E1,-3.768550222E-1,-1.031010300E-1,3.369294298E-1,5.159176008E-1
1.378681021E1,-3.378944396E-1,-1.056429608E-1,2.635275775E-1,4.413387266E-1
1.379688921E1,-2.642842072E-1,-1.282545823E-1,2.377653301E-1,3.779255644E-1
1.380696921E1,-2.413553743E-1,-1.833395930E-1,2.618938655E-1,4.005673724E-1
1.381704821E1,-2.132016157E-1,-2.357366386E-1,3.111642587E-1,4.448032010E-1
1.382712821E1,-1.662022810E-1,-2.458869664E-1,4.078818834E-1,5.044315903E-1
1.383720721E1,-1.363434742E-1,-3.219158265E-1,4.937201786E-1,6.049619468E-1
1.384728721E1,-1.245045436E-1,-4.459213834E-1,5.161126757E-1,6.933394230E-1
1.385736621E1,-1.162435243E-1,-5.276524481E-1,4.718977851E-1,7.173682335E-1
1.386744521E1,-5.176130712E-2,-5.384854384E-1,4.716621423E-1,7.177123217E-1
1.387752521E1,3.263550326E-3,-5.594439058E-1,5.284011841E-1,7.695426862E-1
1.388760421E1,3.686274782E-2,-6.043614855E-1,5.755180478E-1,8.353638074E-1
1.389768421E1,1.378429927E-2,-6.233443250E-1,5.784416556E-1,8.504956810E-1
1.390776321E1,1.060831100E-1,-5.746124603E-1,6.565546095E-1,8.789181196E-1
1.391784321E1,2.227913417E-1,-4.825433721E-1,6.715848774E-1,8.564521793E-1
1.392792221E1,2.802722490E-1,-4.610605556E-1,6.234581995E-1,8.245177354E-1
1.393800221E1,2.296746109E-1,-5.395518243E-1,6.718848395E-1,8.917936059E-1
1.394808121E1,2.795862244E-1,-5.548795693E-1,5.602714330E-1,8.366384356E-1
1.395816121E1,3.642521529E-1,-4.549126469E-1,4.213538682E-1,7.191413140E-1
1.396824021E1,3.192557088E-1,-4.942782953E-1,2.706196654E-1,6.476652254E-1
1.397832021E1,2.431687421E-1,-5.689440233E-1,1.583157027E-1,6.386643879E-1
1.398839921E1,2.017568970E-1,-5.971559617E-1,2.525997162E-2,6.308241865E-1
1.399847921E1,8.102234568E-2,-5.721126294E-1,-1.801223087E-1,6.052450143E-1
1.400855821E1,2.540840684E-1,-3.378901273E-1,-3.691002256E-1,5.612160266E-1
1.401863821E1,3.360823509E-1,-5.060852855E-2,-5.729674923E-1,6.661863981E-1
1.402871721E1,3.257916168E-1,2.993867970E-1,-7.491973096E-1,8.700972592E-1
1.403879721E1,3.571884971E-1,4.871473235E-1,-8.845088965E-1,1.071098560E0
1.404887621E1,2.922379728E-1,5.268417317E-1,-9.257937473E-1,1.104562948E0
1.405895521E1,2.204846882E-1,4.845192924E-1,-8.475983477E-1,1.000897298E0
1.406903521E1,1.571455286E-1,3.367259467E-1,-7.199062675E-1,8.101506739E-1
1.407911421E1,9.849598221E-2,1.850865948E-1,-6.178349322E-1,6.524404261E-1
1.408919421E1,2.211894970E-1,1.755486166E-1,-5.263055420E-1,5.972768486E-1
1.409927321E1,3.851150914E-1,1.996017230E-1,-5.654760396E-1,7.126834030E-1
1.410935321E1,4.075628447E-1,1.770791253E-1,-6.220215386E-1,7.644444280E-1
1.411943221E1,3.772360049E-1,9.699302852E-2,-5.327368945E-1,6.599418533E-1
1.412951221E1,4.520981627E-1,1.800340158E-1,-4.437007570E-1,6.585403232E-1
1.413959121E1,6.059348251E-1,3.822643545E-1,-3.209606838E-1,7.850470111E-1
1.414967121E1,7.918429537E-1,6.515467617E-1,-1.798539215E-1,1.041093598E0
1.415975021E1,9.910905547E-1,1.039130328E0,-1.830225277E-1,1.447601317E0
1.416983021E1,1.185622742E0,1.464345113E0,-2.848938882E-1,1.905563545E0
1.417990921E1,1.363713216E0,1.721006013E0,-3.473409820E-1,2.223110701E0
1.418998921E1,1.349252175E0,1.722670423E0,-2.710061663E-1,2.204885294E0
1.420006821E1,1.200771635E0,1.579794293E0,-9.006641686E-2,1.986382261E0
1.421014821E1,1.040229020E0,1.337311429E0,6.247399092E-2,1.695400033E0
1.422022721E1,7.651245403E-1,1.194392907E0,1.430632406E-1,1.425642687E0
1.423030721E1,3.725037436E-1,1.179901753E0,1.641863072E-1,1.248152366E0
1.424038621E1,-1.397222878E-1,1.290974584E0,5.933403611E-2,1.299868541E0
1.425046521E1,-7.028699662E-1,1.499475769E0,-2.104325205E-1,1.669351856E0
1.426054521E1,-1.298266208E0,1.761182524E0,-4.083923453E-1,2.225768033E0
1.427062421E1,-1.854196084E0,2.056140640E0,-6.335586798E-1,2.840273587E0
1.428070421E1,-2.267319411E0,2.256657452E0,-9.712722212E-1,3.343143714E0
1.429078321E1,-2.462734382E0,2.457082755E0,-1.334301867E0,3.725946561E0
1.430086321E1,-2.323676337E0,2.611175014E0,-1.743030428E0,3.905875286E0
1.431094221E1,-2.245863784E0,2.561357321E0,-2.021233347E0,3.961040231E0
1.432102221E1,-1.776375344E0,2.793939680E0,-2.206145695E0,3.978528261E0
1.433110121E1,-1.627650245E0,2.858418973E0,-2.280994148E0,4.002841322E0
1.434118208E1,-1.497099461E0,2.669079991E0,-2.115265930E0,3.720167301E0
1.435126108E1,-1.344510375E0,2.368656190E0,-1.875316080E0,3.306818818E0
1.436134108E1,-1.197291957E0,2.087276771E0,-1.576023424E0,2.876470438E0
1.437142008E1,-1.052637543E0,1.896720398E0,-1.271582878E0,2.514461589E0
1.438150008E1,-8.073499158E-1,1.776876158E0,-1.004160470E0,2.194866971E0
1.439157908E1,-5.987287165E-1,1.634986746E0,-7.370742774E-1,1.890750176E0
1.440165908E1,-4.727207807E-1,1.434386904E0,-3.873575717E-1,1.559158944E0
1.441173808E1,-3.764744416E-1,1.169278239E0,-7.236338675E-2,1.230520648E0
1.442181708E1,-3.156965818E-1,8.727976544E-1,1.340304619E-1,9.377655581E-1
1.443189708E1,-3.144878161E-1,6.510560341E-1,2.360433251E-1,7.605872714E-1
1.444197608E1,-3.428642075E-1,5.213187441E-1,2.806037861E-1,6.841546481E-1
1.445205608E1,-3.644771245E-1,4.992479901E-1,3.931761360E-1,7.325841957E-1
1.446213508E1,-2.902614860E-1,5.385507810E-1,4.560401362E-1,7.630604693E-1
1.447221508E1,-2.608181240E-1,6.949902584E-1,4.247581172E-1,8.552526008E-1
1.448229408E1,-2.513109168E-1,8.470650816E-1,3.755321628E-1,9.600525166E-1
1.449237408E1,-2.330952320E-1,9.217575605E-1,3.051609224E-1,9.985457306E-1
1.450245308E1,-2.653111245E-1,9.335803382E-1,1.656761777E-1,9.845866323E-1
1.451253308E1,-2.827971498E-1,8.597691809E-1,-6.275348783E-2,9.072570047E-1
1.452261208E1,-2.623539682E-1,7.570015883E-1,-2.372034127E-1,8.355515953E-1
1.453269208E1,-2.585299623E-1,6.724036337E-1,-3.477391773E-1,7.999293241E-1
1.454277108E1,-2.511627629E-1,5.928215669E-1,-4.237798780E-1,7.707850081E-1
1.455285108E1,-2.337581601E-1,4.734910052E-1,-4.497222197E-1,6.936041265E-1
1.456293008E1,-1.904593089E-1,4.494533940E-1,-4.651518524E-1,6.742769071E-1
1.457301008E1,-8.135560043E-2,5.459969178E-1,-4.287698919E-1,6.989813933E-1
1.458308908E1,4.295430399E-2,7.361638659E-1,-3.360757363E-1,8.103883083E-1
1.459316808E1,8.213985823E-2,9.011904180E-1,-2.141647983E-1,9.299234843E-1
1.460324808E1,3.420197234E-2,9.820425001E-1,-1.739815629E-1,9.979212550E-1
1.461332708E1,-1.994127117E-2,1.028345578E0,-2.100132751E-1,1.049760857E0
1.462340708E1,-1.541187175E-2,1.104902149E0,-2.543585587E-1,1.133906769E0
1.463348608E1,-1.280408666E-2,1.085314123E0,-1.802930474E-1,1.100261911E0
1.464356608E1,-1.208323460E-1,8.699051830E-1,-7.190847337E-2,8.811959554E-1
1.465364508E1,-2.487626271E-1,4.784310253E-1,1.837002200E-1,5.696708360E-1
1.466372508E1,-4.551158376E-1,4.717650533E-2,5.253395820E-1,6.966618438E-1
1.467380408E1,-5.970616753E-1,-2.728986177E-1,8.379597974E-1,1.064487164E0
1.468388408E1,-6.572337636E-1,-4.613198796E-1,1.070410593E0,1.338114752E0
1.469396308E1,-6.626895082E-1,-4.628059494E-1,1.219888229E0,1.463377608E0
1.470404308E1,-6.250330009E-1,-3.703807658E-1,1.261830307E0,1.456043917E0
1.471412208E1,-5.506828764E-1,-2.620020390E-1,1.181020617E0,1.329175082E0
1.472420208E1,-4.382510059E-1,-9.802140757E-2,1.004806003E0,1.100594041E0
1.473428108E1,-2.740939347E-1,1.564115569E-2,8.318202209E-1,8.759549137E-1
1.474436008E1,-1.805832155E-1,3.807911485E-2,7.197062927E-1,7.429922372E-1
1.475444008E1,-2.152924338E-1,-4.258117855E-2,6.182307887E-1,6.560284269E-1
1.476451908E1,-2.407260677E-1,-2.221795768E-1,5.192157930E-1,6.139200630E-1
1.477459908E1,-2.460753930E-1,-4.495593747E-1,5.499616224E-1,7.517409903E-1
1.478467808E1,-3.244591460E-1,-7.307223009E-1,7.053297436E-1,1.066170186E0
1.479475808E1,-4.300552560E-1,-9.271399225E-1,9.034480280E-1,1.364094681E0
1.480483708E1,-5.353731117E-1,-1.003644746E0,1.022768065E0,1.529699859E0
1.481491708E1,-6.241361842E-1,-9.901330000E-1,1.085222175E0,1.596125466E0
1.482499608E1,-6.288366146E-1,-8.978898109E-1,1.072084651E0,1.533299416E0
1.483507608E1,-5.649243549E-1,-7.946969797E-1,1.067974643E0,1.446116404E0
1.484515508E1,-5.489361669E-1,-7.511083259E-1,1.080352614E0,1.425712595E0
1.485523508E1,-6.202425233E-1,-7.112817706E-1,9.992762911E-1,1.374472863E0
1.486531408E1,-5.784021869E-1,-5.438587372E-1,7.875088513E-1,1.118258292E0
1.487539408E1,-4.334839902E-1,-3.115419888E-1,4.489702678E-1,6.975249687E-1
1.488547308E1,-3.208905172E-1,-1.309371386E-1,6.730905354E-2,3.530520741E-1
1.489555308E1,-2.309492308E-1,-4.897525504E-2,-3.292608064E-1,4.051528125E-1
1.490563208E1,-1.349140493E-1,4.801294953E-3,-6.727420413E-1,6.861535596E-1
1.491571108E1,-7.537799187E-2,9.343470544E-2,-9.039111274E-1,9.118482397E-1
1.492579108E1,-7.827740684E-2,2.377157749E-1,-1.007037885E0,1.037671164E0
1.493587008E1,-5.377062969E-2,3.398128380E-1,-1.141807435E0,1.192513423E0
1.494595008E1,-8.884844184E-3,3.500590602E-1,-1.301131783E0,1.347428737E0
1.495602908E1,8.598915339E-3,3.022418462E-1,-1.446862523E0,1.478118816E0
1.496610908E1,1.518609613E-2,2.231212708E-1,-1.506801161E0,1.523306751E0
1.497618808E1,-3.636383414E-3,1.751170921E-1,-1.419113392E0,1.429881826E0
1.498626808E1,-1.325087240E-1,1.718695486E-1,-1.221016742E0,1.240153050E0
1.499634708E1,-2.301347136E-1,2.099281982E-1,-1.036422483E0,1.082221510E0
1.500642708E1,-2.631209037E-1,2.699884585E-1,-9.192284936E-1,9.935327881E-1
1.501650608E1,-2.419004810E-1,3.435727438E-1,-8.163514119E-1,9.181436166E-1
1.502658608E1,-2.419827805E-1,3.861343342E-1,-7.470402718E-1,8.750568883E-1
1.503666508E1,-2.981205824E-1,3.398923601E-1,-7.174054134E-1,8.479818543E-1
1.504674408E1,-4.324461825E-1,3.280230971E-1,-6.986089540E-1,8.846826117E-1
1.505682408E1,-4.506169899E-1,4.753358017E-1,-7.238046062E-1,9.761623348E-1
1.506690308E1,-3.615947396E-1,5.710348414E-1,-8.461570090E-1,1.082965018E0
1.507698308E1,-2.995670374E-1,7.183032534E-1,-9.680691165E-1,1.242118266E0
1.508706208E1,-2.198655412E-1,8.515536967E-1,-1.008134823E0,1.337841686E0
1.509714208E1,-1.921197720E-1,9.219373624E-1,-9.852511597E-1,1.362937399E0
1.510722108E1,-1.960710280E-1,9.831742287E-1,-9.964398068E-1,1.413494853E0
1.511730108E1,-1.540948901E-1,1.080836325E0,-9.671668911E-1,1.458548659E0
1.512738008E1,-1.050662792E-1,1.208244084E0,-8.620058870E-1,1.487933748E0
1.513746008E1,-1.540685776E-1,1.336821140E0,-7.092742753E-1,1.521150185E0
1.514753908E1,-1.994517419E-1,1.433858900E0,-5.697825140E-1,1.555758483E0
1.515761908E1,-2.270538157E-1,1.503679917E0,-4.274998766E-1,1.579671761E0
1.516769808E1,-2.922964633E-1,1.432923492E0,-1.688003451E-1,1.472141472E0
1.517777808E1,-2.983725974E-1,1.346705858E0,1.030203384E-1,1.383204998E0
1.518785708E1,-3.974454805E-1,1.222455888E0,3.918026251E-1,1.343826851E0
1.519793608E1,-4.936628759E-1,1.091182096E0,5.930737281E-1,1.336457200E0
1.520801608E1,-4.780187966E-1,1.018104472E0,6.775683331E-1,1.313064176E0
1.521809508E1,-4.512989214E-1,9.996060741E-1,8.585887742E-1,1.392859542E0
1.522817508E1,-5.042603695E-1,9.451316589E-1,8.690260541E-1,1.379405182E0
1.523825408E1,-5.157691517E-1,8.692263213E-1,7.114435923E-1,1.236011408E0
1.524833408E1,-4.682565777E-1,8.430407354E-1,5.141883570E-1,1.092873081E0
1.525841308E1,-4.074203919E-1,8.267137013E-1,3.258454478E-1,9.775592952E-1
1.526849308E1,-3.969383807E-1,7.505640963E-1,1.810286272E-1,8.681462461E-1
1.527857208E1,-4.095457086E-1,6.653809816E-1,7.388190866E-2,7.848044817E-1
1.528865208E1,-4.238559649E-1,5.984781633E-1,-5.739977717E-2,7.356118035E-1
1.529873108E1,-4.106104135E-1,5.968315874E-1,-1.615714324E-1,7.422359350E-1
1.530881108E1,-3.584980541E-1,6.232807365E-1,-2.412865233E-1,7.584318807E-1
1.531889008E1,-3.287205968E-1,6.889309350E-1,-2.924479061E-1,8.174404209E-1
1.532897008E1,-3.261296225E-1,7.753428420E-1,-2.138373542E-1,8.678960003E-1
1.533904908E1,-3.593339867E-1,8.452023049E-1,1.080764258E-1,9.247531368E-1
1.534912971E1,-4.751334149E-1,8.200376429E-1,4.907954013E-1,1.067283291E0
1.535920871E1,-5.080592325E-1,8.483521999E-1,7.987869608E-1,1.271175144E0
1.536928771E1,-4.454827691E-1,9.816340721E-1,1.015476002E0,1.480963153E0
1.537936771E1,-4.141775805E-1,1.129903235E0,1.229848961E0,1.720683834E0
1.538944671E1,-4.112299991E-1,1.214069519E0,1.475216256E0,1.954312644E0
1.539952671E1,-3.054780608E-1,1.312129664E0,1.767227376E0,2.222182193E0
1.540960571E1,-2.117132069E-1,1.298199404E0,1.960141053E0,2.360571355E0
1.541968571E1,-1.484601476E-1,9.908824669E-1,1.955228807E0,2.196999811E0
1.542976471E1,-1.246027038E-1,4.691127563E-1,1.960206542E0,2.019406422E0
1.543984471E1,-1.718452826E-1,-7.097861990E-2,2.141474320E0,2.149530421E0
1.544992371E1,-2.912633333E-1,-5.507629833E-1,2.511106058E0,2.587243287E0
1.546000371E1,-3.924842642E-1,-8.193234055E-1,2.839523111E0,2.981312838E0
1.547008271E1,-4.747450136E-1,-9.603075224E-1,3.057372825E0,3.239614476E0
1.548016271E1,-4.124527980E-1,-9.970730603E-1,2.982683415E0,3.171856295E0
1.549024171E1,-2.713799496E-1,-1.033666398E0,2.720911757E0,2.923264286E0
1.550032171E1,-2.771341945E-1,-1.201528411E0,2.439175365E0,2.733139284E0
1.551040071E1,-1.674668875E-1,-1.295928930E0,2.101685772E0,2.474784846E0
1.552047971E1,-4.082409024E-2,-1.309619016E0,1.546571583E0,2.026981064E0
1.553055971E1,1.737215079E-1,-1.131123257E0,7.866013634E-1,1.388654273E0
1.554063871E1,3.101934016E-1,-9.269710842E-1,3.543412685E-3,9.775008405E-1
1.555071871E1,3.281533438E-1,-7.123841169E-1,-6.031566668E-1,9.894310041E-1
1.556079771E1,3.381536905E-1,-4.543340649E-1,-1.046393740E0,1.189834955E0
1.557087771E1,3.895844107E-1,-1.925610906E-1,-1.376053326E0,1.443044886E0
1.558095671E1,4.435069949E-1,3.025144726E-2,-1.628355419E0,1.687944008E0
1.559103671E1,4.991933186E-1,1.654152457E-1,-1.739336157E0,1.817098357E0
1.560111571E1,4.776381429E-1,1.471676937E-1,-1.614938983E0,1.690510113E0
1.561119571E1,3.504429299E-1,1.873491749E-2,-1.290866411E0,1.337720948E0
1.562127471E1,2.701329578E-1,-1.344827440E-1,-9.131035352E-1,9.616732757E-1
1.563135471E1,2.982115066E-1,-2.593007715E-1,-5.481846535E-1,6.757761516E-1
1.564143371E1,3.706384087E-1,-3.521248814E-1,-1.976680487E-1,5.481217197E-1
1.565151271E1,4.165690186E-1,-4.357750024E-1,1.293573672E-1,6.165735385E-1
1.566159271E1,4.206671128E-1,-4.767389873E-1,3.692540073E-1,7.352478519E-1
1.567167171E1,4.605900740E-1,-4.285490133E-1,4.805399698E-1,7.916540505E-1
1.568175171E1,5.593923041E-1,-3.679347293E-1,4.336634266E-1,7.977215570E-1
1.569183071E1,6.515086086E-1,-3.287268095E-1,3.016362208E-1,7.896259824E-1
1.570191071E1,6.914815635E-1,-3.353812332E-1,1.346502668E-1,7.802294654E-1
1.571198971E1,7.288509726E-1,-3.429140550E-1,-3.086628199E-2,8.060809616E-1
1.572206971E1,7.332583845E-1,-3.602174279E-1,-1.611901939E-1,8.327104733E-1
1.573214871E1,7.119046453E-1,-3.992167483E-1,-2.807248235E-1,8.631272575E-1
1.574222871E1,7.066767228E-1,-4.623848037E-1,-4.098325145E-1,9.386982408E-1
1.575230771E1,6.943937693E-1,-5.001402752E-1,-5.098123008E-1,9.961082189E-1
1.576238771E1,6.639960685E-1,-4.994522041E-1,-5.646451503E-1,1.004573257E0
1.577246671E1,6.292833419E-1,-5.307793929E-1,-6.432311440E-1,1.044734700E0
1.578254671E1,5.950470172E-1,-5.481580487E-1,-7.413211101E-1,1.097321825E0
1.579262571E1,4.900663266E-1,-5.647873838E-1,-7.967562228E-1,1.092689467E0
1.580270471E1,3.677497746E-1,-5.728786147E-1,-8.061971372E-1,1.055169952E0
1.581278471E1,2.466316094E-1,-5.208647078E-1,-7.894583130E-1,9.774311344E-1
1.582286371E1,1.718039501E-1,-4.401190451E-1,-7.968948019E-1,9.264246847E-1
1.583294371E1,9.713818565E-2,-3.513761455E-1,-8.151562411E-1,8.929617685E-1
1.584302271E1,3.077192254E-2,-2.309772974E-1,-8.216712087E-1,8.540731809E-1
1.585310271E1,-7.166384049E-3,-9.726156190E-2,-8.184236652E-1,8.242138462E-1
1.586318171E1,-5.791590359E-2,-1.588133007E-2,-8.420253664E-1,8.441641939E-1
1.587326171E1,-1.172531557E-1,3.783411652E-2,-8.572380674E-1,8.660466656E-1
1.588334071E1,-1.458995788E-1,1.025544615E-1,-8.894468701E-1,9.071492928E-1
1.589342071E1,-1.509335016E-1,1.718311031E-1,-8.600745517E-1,8.899635298E-1
1.590349971E1,-1.824368560E-1,2.466966596E-1,-7.620588452E-1,8.215084490E-1
1.591357971E1,-2.518044400E-1,2.569567689E-1,-5.969697279E-1,6.969972117E-1
1.592365871E1,-3.350602211E-1,1.922349621E-1,-4.470430255E-1,5.908190070E-1
1.593373771E1,-3.676342555E-1,1.846449839E-1,-3.024068838E-1,5.105865639E-1
1.594381771E1,-4.449713570E-1,1.897297226E-1,-1.000253946E-1,4.939655410E-1
1.595389671E1,-5.199246217E-1,1.073148260E-1,1.810718966E-1,5.609145353E-1
1.596397671E1,-6.390000987E-1,-6.075710222E-2,4.733572501E-1,7.975460099E-1
1.597405571E1,-6.937712601E-1,-1.967139293E-1,7.244875610E-1,1.022202112E0
1.598413571E1,-5.826648071E-1,-2.060383379E-2,7.350640047E-1,9.382120690E-1
1.599421471E1,-3.864393396E-1,2.377705926E-1,7.264469630E-1,8.565018435E-1
1.600429471E1,-3.031885104E-1,3.255992800E-1,7.355037153E-1,8.595951833E-1
1.601437371E1,-3.799325580E-1,2.202103807E-1,8.204883170E-1,9.306140117E-1
1.602445371E1,-5.399418336E-1,4.590926751E-2,7.968760908E-1,9.636681735E-1
1.603453271E1,-5.891689575E-1,-5.246516570E-2,7.528804708E-1,9.574453808E-1
1.604461271E1,-5.373980755E-1,5.568303466E-3,6.844376421E-1,8.702198478E-1
1.605469171E1,-4.002351140E-1,1.791623421E-1,6.697406656E-1,8.005247344E-1
1.606477171E1,-3.946829635E-1,2.518964423E-1,6.219081026E-1,7.784575438E-1
1.607485071E1,-3.607136372E-1,3.196342430E-1,6.232576400E-1,7.878644954E-1
1.608492971E1,-3.463275133E-1,4.182545516E-1,5.864792383E-1,7.992731156E-1
1.609500971E1,-3.130196899E-1,5.407794473E-1,5.102508420E-1,8.067091536E-1
1.610508871E1,-2.233947378E-1,5.889387234E-1,4.588280886E-1,7.792799521E-1
1.611516871E1,-9.760113895E-2,5.239087683E-1,4.381043869E-1,6.898853772E-1
1.612524771E1,-4.341122735E-2,2.262119628E-1,3.854157114E-1,4.490007321E-1
1.613532771E1,-1.039232947E-3,-2.636500767E-1,2.588229078E-1,3.694614196E-1
1.614540671E1,-7.131234517E-2,-9.058107416E-1,1.954601401E-1,9.293993849E-1
1.615548671E1,-1.422199077E-1,-1.469946453E0,9.582650900E-2,1.479916145E0
1.616556571E1,-1.879453716E-1,-1.956400005E0,6.687460542E-2,1.966544343E0
1.617564571E1,-2.821538099E-1,-2.331154342E0,7.835502863E-2,2.349474590E0
1.618572471E1,-4.676469324E-1,-2.426597127E0,1.512855953E-1,2.475874512E0
1.619580471E1,-6.312550961E-1,-2.127684247E0,3.434081447E-1,2.245763212E0
1.620588371E1,-7.051850981E-1,-1.526376762E0,5.553094858E-1,1.770728852E0
